Stopping power dEdx from Ionisation for alpha Z = 2 in G4_TISSUE_SOFT_ICRP, process name: ionIoni
E [MeV]	dEdx [MeV/mm]
0.001	14.225
0.00100577	14.265
0.00101158	14.3051
0.00101742	14.3453
0.00102329	14.3857
0.0010292	14.4262
0.00103514	14.4668
0.00104112	14.5075
0.00104713	14.5483
0.00105317	14.5892
0.00105925	14.6303
0.00106537	14.6715
0.00107152	14.7128
0.00107771	14.7542
0.00108393	14.7957
0.00109018	14.8374
0.00109648	14.8791
0.00110281	14.921
0.00110917	14.963
0.00111558	15.0052
0.00112202	15.0474
0.0011285	15.0898
0.00113501	15.1323
0.00114156	15.1749
0.00114815	15.2177
0.00115478	15.2605
0.00116145	15.3035
0.00116815	15.3466
0.0011749	15.3899
0.00118168	15.4332
0.0011885	15.4767
0.00119536	15.5203
0.00120226	15.5641
0.00120921	15.608
0.00121619	15.6519
0.00122321	15.6961
0.00123027	15.7403
0.00123737	15.7847
0.00124451	15.8292
0.0012517	15.8738
0.00125893	15.9186
0.00126619	15.9635
0.0012735	16.0085
0.00128086	16.0536
0.00128825	16.0989
0.00129569	16.1443
0.00130317	16.1899
0.00131069	16.2355
0.00131826	16.2814
0.00132587	16.3273
0.00133352	16.3734
0.00134122	16.4196
0.00134896	16.4659
0.00135675	16.5124
0.00136458	16.559
0.00137246	16.6057
0.00138038	16.6526
0.00138835	16.6996
0.00139637	16.7467
0.00140443	16.794
0.00141254	16.8414
0.00142069	16.889
0.00142889	16.9367
0.00143714	16.9845
0.00144544	17.0325
0.00145378	17.0806
0.00146218	17.1288
0.00147062	17.1772
0.00147911	17.2257
0.00148765	17.2744
0.00149624	17.3232
0.00150487	17.3722
0.00151356	17.4212
0.0015223	17.4705
0.00153109	17.5198
0.00153993	17.5694
0.00154882	17.619
0.00155776	17.6688
0.00156675	17.7188
0.0015758	17.7689
0.00158489	17.8191
0.00159404	17.8695
0.00160325	17.92
0.0016125	17.9707
0.00162181	18.0215
0.00163117	18.0725
0.00164059	18.1236
0.00165006	18.1749
0.00165959	18.2263
0.00166917	18.2778
0.0016788	18.3295
0.0016885	18.3814
0.00169824	18.4334
0.00170805	18.4856
0.00171791	18.5379
0.00172783	18.5903
0.0017378	18.643
0.00174783	18.6957
0.00175792	18.7486
0.00176807	18.8017
0.00177828	18.8549
0.00178855	18.9083
0.00179887	18.9619
0.00180926	19.0156
0.0018197	19.0694
0.00183021	19.1234
0.00184077	19.1776
0.0018514	19.2319
0.00186209	19.2864
0.00187284	19.341
0.00188365	19.3958
0.00189452	19.4507
0.00190546	19.5058
0.00191646	19.5611
0.00192752	19.6165
0.00193865	19.6721
0.00194984	19.7279
0.0019611	19.7838
0.00197242	19.8399
0.00198381	19.8961
0.00199526	19.9525
0.00200678	20.0091
0.00201837	20.0658
0.00203002	20.1227
0.00204174	20.1798
0.00205353	20.237
0.00206538	20.2944
0.0020773	20.352
0.0020893	20.4097
0.00210136	20.4676
0.00211349	20.5256
0.00212569	20.5839
0.00213796	20.6423
0.0021503	20.7008
0.00216272	20.7596
0.0021752	20.8185
0.00218776	20.8776
0.00220039	20.9368
0.00221309	20.9962
0.00222587	21.0558
0.00223872	21.1156
0.00225165	21.1756
0.00226464	21.2357
0.00227772	21.296
0.00229087	21.3564
0.00230409	21.4171
0.00231739	21.4779
0.00233077	21.5389
0.00234423	21.6001
0.00235776	21.6614
0.00237137	21.723
0.00238506	21.7847
0.00239883	21.8466
0.00241268	21.9086
0.00242661	21.9709
0.00244062	22.0333
0.00245471	22.0959
0.00246888	22.1587
0.00248313	22.2217
0.00249747	22.2849
0.00251189	22.3482
0.00252639	22.4118
0.00254097	22.4755
0.00255564	22.5394
0.0025704	22.6035
0.00258523	22.6677
0.00260016	22.7322
0.00261517	22.7968
0.00263027	22.8617
0.00264545	22.9267
0.00266073	22.9919
0.00267609	23.0573
0.00269153	23.1229
0.00270707	23.1887
0.0027227	23.2547
0.00273842	23.3209
0.00275423	23.3872
0.00277013	23.4538
0.00278612	23.5205
0.00280221	23.5875
0.00281838	23.6546
0.00283465	23.722
0.00285102	23.7895
0.00286748	23.8572
0.00288403	23.9252
0.00290068	23.9933
0.00291743	24.0616
0.00293427	24.1301
0.00295121	24.1989
0.00296825	24.2678
0.00298538	24.3369
0.00300262	24.4062
0.00301995	24.4758
0.00303739	24.5455
0.00305492	24.6154
0.00307256	24.6856
0.0030903	24.7559
0.00310814	24.8265
0.00312608	24.8972
0.00314413	24.9682
0.00316228	25.0394
0.00318053	25.1107
0.0031989	25.1823
0.00321736	25.2541
0.00323594	25.3261
0.00325462	25.3983
0.00327341	25.4708
0.0032923	25.5434
0.00331131	25.6163
0.00333043	25.6893
0.00334965	25.7626
0.00336899	25.8361
0.00338844	25.9098
0.003408	25.9837
0.00342768	26.0579
0.00344747	26.1322
0.00346737	26.2068
0.00348739	26.2816
0.00350752	26.3566
0.00352777	26.4318
0.00354813	26.5073
0.00356862	26.5829
0.00358922	26.6588
0.00360994	26.7349
0.00363078	26.8113
0.00365174	26.8878
0.00367282	26.9646
0.00369403	27.0416
0.00371535	27.1188
0.0037368	27.1963
0.00375837	27.274
0.00378007	27.3519
0.00380189	27.43
0.00382384	27.5084
0.00384592	27.587
0.00386812	27.6658
0.00389045	27.7449
0.00391291	27.8242
0.0039355	27.9037
0.00395822	27.9834
0.00398107	28.0634
0.00400405	28.1368
0.00402717	28.1864
0.00405042	28.2672
0.0040738	28.3483
0.00409732	28.4295
0.00412098	28.5111
0.00414477	28.5928
0.00416869	28.6748
0.00419276	28.757
0.00421697	28.8395
0.00424131	28.9222
0.0042658	29.0051
0.00429042	29.0883
0.00431519	29.1717
0.0043401	29.2554
0.00436516	29.3393
0.00439036	29.4235
0.0044157	29.5079
0.0044412	29.5925
0.00446684	29.6774
0.00449262	29.7626
0.00451856	29.848
0.00454465	29.9336
0.00457088	30.0195
0.00459727	30.1056
0.00462381	30.192
0.0046505	30.2786
0.00467735	30.3655
0.00470435	30.4527
0.00473151	30.5401
0.00475883	30.6277
0.0047863	30.7157
0.00481393	30.8038
0.00484172	30.8923
0.00486968	30.9809
0.00489779	31.0699
0.00492606	31.1591
0.0049545	31.2486
0.0049831	31.3383
0.00501187	31.4283
0.00504081	31.5185
0.00506991	31.609
0.00509918	31.6998
0.00512861	31.7909
0.00515822	31.8822
0.005188	31.9737
0.00521795	32.0656
0.00524807	32.1577
0.00527837	32.2501
0.00530884	32.3428
0.00533949	32.4357
0.00537032	32.5289
0.00540132	32.6224
0.0054325	32.7161
0.00546387	32.8101
0.00549541	32.9044
0.00552713	32.999
0.00555904	33.0938
0.00559114	33.189
0.00562341	33.2844
0.00565588	33.3801
0.00568853	33.476
0.00572137	33.5723
0.0057544	33.6688
0.00578762	33.7656
0.00582103	33.8627
0.00585464	33.9601
0.00588844	34.0578
0.00592243	34.1557
0.00595662	34.254
0.00599101	34.3525
0.0060256	34.4513
0.00606038	34.5505
0.00609537	34.6499
0.00613056	34.7496
0.00616595	34.8495
0.00620155	34.9498
0.00623735	35.0504
0.00627336	35.1513
0.00630957	35.2524
0.006346	35.3539
0.00638263	35.4557
0.00641948	35.5577
0.00645654	35.6601
0.00649382	35.7628
0.00653131	35.8657
0.00656901	35.969
0.00660693	36.0726
0.00664508	36.1765
0.00668344	36.2807
0.00672202	36.3851
0.00676083	36.4899
0.00679986	36.595
0.00683912	36.7005
0.0068786	36.8062
0.00691831	36.9122
0.00695825	37.0186
0.00699842	37.1252
0.00703882	37.2322
0.00707946	37.3395
0.00712033	37.4471
0.00716143	37.555
0.00720278	37.6633
0.00724436	37.7719
0.00728618	37.8807
0.00732825	37.9899
0.00737055	38.0995
0.0074131	38.2093
0.0074559	38.3195
0.00749894	38.43
0.00754223	38.5408
0.00758578	38.652
0.00762957	38.7634
0.00767361	38.8752
0.00771792	38.9874
0.00776247	39.0998
0.00780728	39.2126
0.00785236	39.3258
0.00789769	39.4392
0.00794328	39.553
0.00798914	39.6672
0.00803526	39.7816
0.00808165	39.8964
0.00812831	40.0116
0.00817523	40.1271
0.00822243	40.2429
0.0082699	40.3591
0.00831764	40.4756
0.00836566	40.5924
0.00841395	40.7096
0.00846253	40.8272
0.00851138	40.9451
0.00856052	41.0633
0.00860994	41.1819
0.00865964	41.3008
0.00870964	41.4201
0.00875992	41.5398
0.00881049	41.6598
0.00886135	41.7801
0.00891251	41.9008
0.00896396	42.0219
0.00901571	42.1433
0.00906776	42.2651
0.00912011	42.3872
0.00917276	42.5097
0.00922571	42.6326
0.00927897	42.7558
0.00933254	42.8794
0.00938642	43.0034
0.00944061	43.1277
0.00949511	43.2524
0.00954993	43.3774
0.00960506	43.5029
0.00966051	43.6287
0.00971628	43.7548
0.00977237	43.8814
0.00982879	44.0083
0.00988553	44.1356
0.0099426	44.2632
0.01	44.3913
0.0100577	44.5197
0.0101158	44.6485
0.0101742	44.7777
0.0102329	44.9072
0.010292	45.0372
0.0103514	45.1675
0.0104112	45.2982
0.0104713	45.4293
0.0105317	45.5608
0.0105925	45.6927
0.0106537	45.825
0.0107152	45.9576
0.0107771	46.0907
0.0108393	46.2241
0.0109018	46.358
0.0109648	46.4922
0.0110281	46.6269
0.0110917	46.7619
0.0111558	46.8973
0.0112202	47.0332
0.011285	47.1694
0.0113501	47.306
0.0114156	47.4431
0.0114815	47.5805
0.0115478	47.7184
0.0116145	47.8566
0.0116815	47.9953
0.011749	48.1344
0.0118168	48.2739
0.011885	48.4138
0.0119536	48.5541
0.0120226	48.6948
0.0120921	48.836
0.0121619	48.9775
0.0122321	49.1195
0.0123027	49.2619
0.0123737	49.4048
0.0124451	49.548
0.012517	49.6917
0.0125893	49.8358
0.0126619	49.9803
0.012735	50.1253
0.0128086	50.2706
0.0128825	50.4164
0.0129569	50.5627
0.0130317	50.7094
0.0131069	50.8565
0.0131826	51.004
0.0132587	51.152
0.0133352	51.3004
0.0134122	51.4493
0.0134896	51.5986
0.0135675	51.7483
0.0136458	51.8985
0.0137246	52.0491
0.0138038	52.2002
0.0138835	52.3517
0.0139637	52.5037
0.0140443	52.6561
0.0141254	52.809
0.0142069	52.9623
0.0142889	53.1161
0.0143714	53.2703
0.0144544	53.425
0.0145378	53.5801
0.0146218	53.7357
0.0147062	53.8918
0.0147911	54.0483
0.0148765	54.2053
0.0149624	54.3627
0.0150487	54.5207
0.0151356	54.6791
0.015223	54.8379
0.0153109	54.9972
0.0153993	55.157
0.0154882	55.3173
0.0155776	55.478
0.0156675	55.6392
0.015758	55.8009
0.0158489	55.9631
0.0159404	56.1258
0.0160325	56.2889
0.016125	56.4525
0.0162181	56.6166
0.0163117	56.7812
0.0164059	56.9463
0.0165006	57.1118
0.0165959	57.2779
0.0166917	57.4444
0.016788	57.6114
0.016885	57.779
0.0169824	57.947
0.0170805	58.1155
0.0171791	58.2845
0.0172783	58.454
0.017378	58.6241
0.0174783	58.7946
0.0175792	58.9656
0.0176807	59.1371
0.0177828	59.3092
0.0178855	59.4817
0.0179887	59.6548
0.0180926	59.8283
0.018197	60.0024
0.0183021	60.177
0.0184077	60.3521
0.018514	60.5277
0.0186209	60.7039
0.0187284	60.8805
0.0188365	61.0577
0.0189452	61.2354
0.0190546	61.4137
0.0191646	61.5924
0.0192752	61.7717
0.0193865	61.9515
0.0194984	62.1319
0.019611	62.3128
0.0197242	62.4942
0.0198381	62.6761
0.0199526	62.8586
0.0200678	63.0416
0.0201837	63.2252
0.0203002	63.4093
0.0204174	63.594
0.0205353	63.7792
0.0206538	63.9649
0.020773	64.1512
0.020893	64.338
0.0210136	64.5254
0.0211349	64.7134
0.0212569	64.9019
0.0213796	65.0909
0.021503	65.2805
0.0216272	65.4707
0.021752	65.6614
0.0218776	65.8527
0.0220039	66.0446
0.0221309	66.237
0.0222587	66.43
0.0223872	66.6236
0.0225165	66.8177
0.0226464	67.0124
0.0227772	67.2077
0.0229087	67.4035
0.0230409	67.5999
0.0231739	67.7969
0.0233077	67.9945
0.0234423	68.1927
0.0235776	68.3914
0.0237137	68.5908
0.0238506	68.7907
0.0239883	68.9912
0.0241268	69.1923
0.0242661	69.394
0.0244062	69.5962
0.0245471	69.7991
0.0246888	70.0026
0.0248313	70.2067
0.0249747	70.4113
0.0251189	70.6166
0.0252639	70.8225
0.0254097	71.029
0.0255564	71.236
0.025704	71.4437
0.0258523	71.652
0.0260016	71.861
0.0261517	72.0705
0.0263027	72.2806
0.0264545	72.4914
0.0266073	72.7028
0.0267609	72.9148
0.0269153	73.1274
0.0270707	73.3406
0.027227	73.5545
0.0273842	73.769
0.0275423	73.9841
0.0277013	74.1999
0.0278612	74.4163
0.0280221	74.6333
0.0281838	74.8509
0.0283465	75.0692
0.0285102	75.2882
0.0286748	75.5077
0.0288403	75.7279
0.0290068	75.9488
0.0291743	76.1703
0.0293427	76.3925
0.0295121	76.6153
0.0296825	76.8387
0.0298538	77.0628
0.0300262	77.2876
0.0301995	77.513
0.0303739	77.7391
0.0305492	77.9658
0.0307256	78.1932
0.030903	78.4212
0.0310814	78.65
0.0312608	78.8794
0.0314413	79.1094
0.0316228	79.3401
0.0318053	79.5716
0.031989	79.8036
0.0321736	80.0364
0.0323594	80.2698
0.0325462	80.5039
0.0327341	80.7387
0.032923	80.9742
0.0331131	81.2103
0.0333043	81.4472
0.0334965	81.6847
0.0336899	81.9229
0.0338844	82.1618
0.03408	82.4014
0.0342768	82.6417
0.0344747	82.8827
0.0346737	83.1244
0.0348739	83.3668
0.0350752	83.6099
0.0352777	83.8538
0.0354813	84.0983
0.0356862	84.3435
0.0358922	84.5894
0.0360994	84.8361
0.0363078	85.0834
0.0365174	85.3315
0.0367282	85.5803
0.0369403	85.8298
0.0371535	86.08
0.037368	86.3309
0.0375837	86.5826
0.0378007	86.835
0.0380189	87.0881
0.0382384	87.342
0.0384592	87.5966
0.0386812	87.8519
0.0389045	88.1079
0.0391291	88.3647
0.039355	88.6223
0.0395822	88.8805
0.0398107	89.1395
0.0400405	89.3993
0.0402717	89.6598
0.0405042	89.9211
0.040738	90.1831
0.0409732	90.4458
0.0412098	90.7093
0.0414477	90.9736
0.0416869	91.2386
0.0419276	91.5043
0.0421697	91.7709
0.0424131	92.0382
0.042658	92.3062
0.0429042	92.575
0.0431519	92.8446
0.043401	93.115
0.0436516	93.3861
0.0439036	93.658
0.044157	93.9307
0.044412	94.2041
0.0446684	94.4784
0.0449262	94.7534
0.0451856	95.0292
0.0454465	95.3057
0.0457088	95.5831
0.0459727	95.8612
0.0462381	96.1402
0.046505	96.4199
0.0467735	96.7004
0.0470435	96.9817
0.0473151	97.2638
0.0475883	97.5467
0.047863	97.8304
0.0481393	98.1149
0.0484172	98.4002
0.0486968	98.6863
0.0489779	98.9732
0.0492606	99.2609
0.049545	99.5495
0.049831	99.8388
0.0501187	100.129
0.0504081	100.42
0.0506991	100.712
0.0509918	101.004
0.0512861	101.298
0.0515822	101.592
0.05188	101.887
0.0521795	102.183
0.0524807	102.48
0.0527837	102.777
0.0530884	103.075
0.0533949	103.375
0.0537032	103.675
0.0540132	103.976
0.054325	104.277
0.0546387	104.58
0.0549541	104.883
0.0552713	105.187
0.0555904	105.492
0.0559114	105.798
0.0562341	106.105
0.0565588	106.413
0.0568853	106.721
0.0572137	107.03
0.057544	107.34
0.0578762	107.651
0.0582103	107.963
0.0585464	108.276
0.0588844	108.59
0.0592243	108.904
0.0595662	109.219
0.0599101	109.535
0.060256	109.852
0.0606038	110.17
0.0609537	110.489
0.0613056	110.809
0.0616595	111.129
0.0620155	111.45
0.0623735	111.773
0.0627336	112.096
0.0630957	112.42
0.06346	112.744
0.0638263	113.07
0.0641948	113.397
0.0645654	113.724
0.0649382	114.052
0.0653131	114.382
0.0656901	114.712
0.0660693	115.043
0.0664508	115.375
0.0668344	115.707
0.0672202	116.041
0.0676083	116.375
0.0679986	116.711
0.0683912	117.047
0.068786	117.384
0.0691831	117.722
0.0695825	118.061
0.0699842	118.401
0.0703882	118.742
0.0707946	119.084
0.0712033	119.426
0.0716143	119.77
0.0720278	120.114
0.0724436	120.459
0.0728618	120.806
0.0732825	121.153
0.0737055	121.501
0.074131	121.849
0.074559	122.199
0.0749894	122.55
0.0754223	122.902
0.0758578	123.254
0.0762957	123.607
0.0767361	123.962
0.0771792	124.317
0.0776247	124.673
0.0780728	125.03
0.0785236	125.388
0.0789769	125.747
0.0794328	126.107
0.0798914	126.467
0.0803526	126.829
0.0808165	127.192
0.0812831	127.555
0.0817523	127.919
0.0822243	128.285
0.082699	128.651
0.0831764	129.018
0.0836566	129.386
0.0841395	129.755
0.0846253	130.125
0.0851138	130.495
0.0856052	130.867
0.0860994	131.24
0.0865964	131.613
0.0870964	131.988
0.0875992	132.363
0.0881049	132.739
0.0886135	133.116
0.0891251	133.495
0.0896396	133.874
0.0901571	134.254
0.0906776	134.634
0.0912011	135.016
0.0917276	135.399
0.0922571	135.782
0.0927897	136.167
0.0933254	136.552
0.0938642	136.939
0.0944061	137.326
0.0949511	137.714
0.0954993	138.103
0.0960506	138.493
0.0966051	138.884
0.0971628	139.276
0.0977237	139.669
0.0982879	140.062
0.0988553	140.457
0.099426	140.852
0.1	141.249
0.100577	141.646
0.101158	142.044
0.101742	142.443
0.102329	142.843
0.10292	143.244
0.103514	143.646
0.104112	144.048
0.104713	144.452
0.105317	144.856
0.105925	145.262
0.106537	145.668
0.107152	146.075
0.107771	146.483
0.108393	146.892
0.109018	147.302
0.109648	147.713
0.110281	148.124
0.110917	148.537
0.111558	148.95
0.112202	149.364
0.11285	149.779
0.113501	150.195
0.114156	150.612
0.114815	151.03
0.115478	151.448
0.116145	151.868
0.116815	152.288
0.11749	152.709
0.118168	153.131
0.11885	153.554
0.119536	153.978
0.120226	154.402
0.120921	154.828
0.121619	155.254
0.122321	155.681
0.123027	156.109
0.123737	156.538
0.124451	156.967
0.12517	157.398
0.125893	157.829
0.126619	158.261
0.12735	158.694
0.128086	159.127
0.128825	159.562
0.129569	159.997
0.130317	160.433
0.131069	160.87
0.131826	161.308
0.132587	161.746
0.133352	162.185
0.134122	162.625
0.134896	163.066
0.135675	163.508
0.136458	163.95
0.137246	164.393
0.138038	164.837
0.138835	165.281
0.139637	165.727
0.140443	166.173
0.141254	166.619
0.142069	167.067
0.142889	167.515
0.143714	167.964
0.144544	168.413
0.145378	168.864
0.146218	169.315
0.147062	169.767
0.147911	170.219
0.148765	170.672
0.149624	171.126
0.150487	171.58
0.151356	172.035
0.15223	172.491
0.153109	172.947
0.153993	173.404
0.154882	173.862
0.155776	174.32
0.156675	174.779
0.15758	175.239
0.158489	175.699
0.159404	176.159
0.160325	176.621
0.16125	177.083
0.162181	177.545
0.163117	178.008
0.164059	178.472
0.165006	178.936
0.165959	179.4
0.166917	179.865
0.16788	180.331
0.16885	180.797
0.169824	181.264
0.170805	181.731
0.171791	182.199
0.172783	182.667
0.17378	183.135
0.174783	183.604
0.175792	184.074
0.176807	184.544
0.177828	185.014
0.178855	185.485
0.179887	185.956
0.180926	186.427
0.18197	186.899
0.183021	187.371
0.184077	187.844
0.18514	188.317
0.186209	188.79
0.187284	189.264
0.188365	189.738
0.189452	190.212
0.190546	190.686
0.191646	191.161
0.192752	191.636
0.193865	192.111
0.194984	192.587
0.19611	193.062
0.197242	193.538
0.198381	194.014
0.199526	194.491
0.200678	194.967
0.201837	195.444
0.203002	195.92
0.204174	196.397
0.205353	196.874
0.206538	197.351
0.20773	197.828
0.20893	198.305
0.210136	198.782
0.211349	199.26
0.212569	199.737
0.213796	200.214
0.21503	200.691
0.216272	201.168
0.21752	201.646
0.218776	202.123
0.220039	202.6
0.221309	203.076
0.222587	203.553
0.223872	204.03
0.225165	204.506
0.226464	204.982
0.227772	205.458
0.229087	205.934
0.230409	206.41
0.231739	206.885
0.233077	207.36
0.234423	207.835
0.235776	208.31
0.237137	208.784
0.238506	209.258
0.239883	209.731
0.241268	210.204
0.242661	210.677
0.244062	211.149
0.245471	211.621
0.246888	212.092
0.248313	212.563
0.249747	213.033
0.251189	213.503
0.252639	213.972
0.254097	214.441
0.255564	214.909
0.25704	215.376
0.258523	215.843
0.260016	216.309
0.261517	216.775
0.263027	217.239
0.264545	217.703
0.266073	218.166
0.267609	218.629
0.269153	219.09
0.270707	219.551
0.27227	220.011
0.273842	220.47
0.275423	220.928
0.277013	221.385
0.278612	221.841
0.280221	222.297
0.281838	222.751
0.283465	223.204
0.285102	223.656
0.286748	224.107
0.288403	224.557
0.290068	225.005
0.291743	225.453
0.293427	225.899
0.295121	226.344
0.296825	226.788
0.298538	227.231
0.300262	227.672
0.301995	228.112
0.303739	228.55
0.305492	228.987
0.307256	229.423
0.30903	229.857
0.310814	230.29
0.312608	230.721
0.314413	231.15
0.316228	231.578
0.318053	232.005
0.31989	232.43
0.321736	232.853
0.323594	233.274
0.325462	233.694
0.327341	234.112
0.32923	234.528
0.331131	234.942
0.333043	235.354
0.334965	235.765
0.336899	236.173
0.338844	236.58
0.3408	236.984
0.342768	237.387
0.344747	237.788
0.346737	238.186
0.348739	238.582
0.350752	238.977
0.352777	239.368
0.354813	239.758
0.356862	240.146
0.358922	240.531
0.360994	240.914
0.363078	241.294
0.365174	241.672
0.367282	242.048
0.369403	242.421
0.371535	242.792
0.37368	243.16
0.375837	243.526
0.378007	243.889
0.380189	244.249
0.382384	244.607
0.384592	244.962
0.386812	245.315
0.389045	245.664
0.391291	246.011
0.39355	246.355
0.395822	246.696
0.398107	247.034
0.400405	247.369
0.402717	247.701
0.405042	248.03
0.40738	248.356
0.409732	248.679
0.412098	248.999
0.414477	249.316
0.416869	249.629
0.419276	249.94
0.421697	250.247
0.424131	250.55
0.42658	250.851
0.429042	251.148
0.431519	251.441
0.43401	251.732
0.436516	252.018
0.439036	252.301
0.44157	252.581
0.44412	252.857
0.446684	253.129
0.449262	253.398
0.451856	253.663
0.454465	253.924
0.457088	254.182
0.459727	254.436
0.462381	254.686
0.46505	254.932
0.467735	255.174
0.470435	255.412
0.473151	255.647
0.475883	255.877
0.47863	256.103
0.481393	256.325
0.484172	256.544
0.486968	256.758
0.489779	256.967
0.492606	257.173
0.49545	257.374
0.49831	257.572
0.501187	257.765
0.504081	257.953
0.506991	258.137
0.509918	258.317
0.512861	258.493
0.515822	258.664
0.5188	258.83
0.521795	258.992
0.524807	259.149
0.527837	259.302
0.530884	259.451
0.533949	259.594
0.537032	259.733
0.540132	259.868
0.54325	259.998
0.546387	260.122
0.549541	260.243
0.552713	260.358
0.555904	260.469
0.559114	260.574
0.562341	260.675
0.565588	260.771
0.568853	260.862
0.572137	260.949
0.57544	261.03
0.578762	261.106
0.582103	261.177
0.585464	261.244
0.588844	261.305
0.592243	261.361
0.595662	261.412
0.599101	261.458
0.60256	261.499
0.606038	261.534
0.609537	261.565
0.613056	261.59
0.616595	261.61
0.620155	261.625
0.623735	261.635
0.627336	261.639
0.630957	261.638
0.6346	261.632
0.638263	261.62
0.641948	261.604
0.645654	261.581
0.649382	261.554
0.653131	261.521
0.656901	261.483
0.660693	261.439
0.664508	261.39
0.668344	261.336
0.672202	261.276
0.676083	261.211
0.679986	261.14
0.683912	261.064
0.68786	260.983
0.691831	260.896
0.695825	260.804
0.699842	260.706
0.703882	260.602
0.707946	260.494
0.712033	260.379
0.716143	260.26
0.720278	260.135
0.724436	260.004
0.728618	259.868
0.732825	259.726
0.737055	259.579
0.74131	259.427
0.74559	259.269
0.749894	259.105
0.754223	258.936
0.758578	258.762
0.762957	258.582
0.767361	258.396
0.771792	258.206
0.776247	258.009
0.780728	257.808
0.785236	257.601
0.789769	257.388
0.794328	257.17
0.798914	256.947
0.803526	256.718
0.808165	256.484
0.812831	256.244
0.817523	256
0.822243	255.749
0.82699	255.494
0.831764	255.233
0.836566	254.967
0.841395	254.696
0.846253	254.419
0.851138	254.137
0.856052	253.85
0.860994	253.558
0.865964	253.26
0.870964	252.958
0.875992	252.65
0.881049	252.337
0.886135	252.019
0.891251	251.695
0.896396	251.367
0.901571	251.034
0.906776	250.696
0.912011	250.352
0.917276	250.004
0.922571	249.651
0.927897	249.293
0.933254	248.93
0.938642	248.562
0.944061	248.189
0.949511	247.811
0.954993	247.429
0.960506	247.042
0.966051	246.65
0.971628	246.254
0.977237	245.853
0.982879	245.447
0.988553	245.037
0.99426	244.622
1	244.202
1.00577	243.779
1.01158	243.35
1.01742	242.917
1.02329	242.48
1.0292	242.039
1.03514	241.593
1.04112	241.143
1.04713	240.689
1.05317	240.23
1.05925	239.768
1.06537	239.301
1.07152	238.83
1.07771	238.355
1.08393	237.876
1.09018	237.393
1.09648	236.907
1.10281	236.416
1.10917	235.921
1.11558	235.423
1.12202	234.921
1.1285	234.415
1.13501	233.906
1.14156	233.393
1.14815	232.876
1.15478	232.356
1.16145	231.833
1.16815	231.306
1.1749	230.775
1.18168	230.241
1.1885	229.704
1.19536	229.164
1.20226	228.62
1.20921	228.073
1.21619	227.524
1.22321	226.971
1.23027	226.415
1.23737	225.856
1.24451	225.294
1.2517	224.729
1.25893	224.161
1.26619	223.591
1.2735	223.017
1.28086	222.442
1.28825	221.863
1.29569	221.282
1.30317	220.698
1.31069	220.112
1.31826	219.523
1.32587	218.932
1.33352	218.339
1.34122	217.743
1.34896	217.145
1.35675	216.545
1.36458	215.942
1.37246	215.338
1.38038	214.731
1.38835	214.123
1.39637	213.512
1.40443	212.9
1.41254	212.285
1.42069	211.669
1.42889	211.051
1.43714	210.432
1.44544	209.81
1.45378	209.187
1.46218	208.563
1.47062	207.937
1.47911	207.309
1.48765	206.68
1.49624	206.05
1.50487	205.418
1.51356	204.785
1.5223	204.151
1.53109	203.516
1.53993	202.879
1.54882	202.242
1.55776	201.603
1.56675	200.963
1.5758	200.322
1.58489	199.681
1.59404	199.038
1.60325	198.395
1.6125	197.751
1.62181	197.106
1.63117	196.461
1.64059	195.815
1.65006	195.168
1.65959	194.521
1.66917	193.873
1.6788	193.225
1.6885	192.576
1.69824	191.927
1.70805	191.278
1.71791	190.629
1.72783	189.979
1.7378	189.329
1.74783	188.678
1.75792	188.028
1.76807	187.378
1.77828	186.727
1.78855	186.077
1.79887	185.426
1.80926	184.776
1.8197	184.126
1.83021	183.476
1.84077	182.826
1.8514	182.176
1.86209	181.527
1.87284	180.878
1.88365	180.229
1.89452	179.581
1.90546	178.933
1.91646	178.286
1.92752	177.639
1.93865	176.992
1.94984	176.346
1.9611	175.701
1.97242	175.057
1.98381	174.413
1.99526	173.769
2.00678	173.127
2.01837	172.485
2.03002	171.844
2.04174	171.204
2.05353	170.565
2.06538	169.926
2.0773	169.289
2.0893	168.652
2.10136	168.017
2.11349	167.382
2.12569	166.749
2.13796	166.116
2.1503	165.485
2.16272	164.855
2.1752	164.226
2.18776	163.598
2.20039	162.971
2.21309	162.345
2.22587	161.721
2.23872	161.098
2.25165	160.476
2.26464	159.856
2.27772	159.237
2.29087	158.619
2.30409	158.003
2.31739	157.388
2.33077	156.774
2.34423	156.162
2.35776	155.551
2.37137	154.942
2.38506	154.334
2.39883	153.728
2.41268	153.124
2.42661	152.521
2.44062	151.919
2.45471	151.319
2.46888	150.721
2.48313	150.124
2.49747	149.529
2.51189	148.936
2.52639	148.345
2.54097	147.755
2.55564	147.166
2.5704	146.58
2.58523	145.995
2.60016	145.412
2.61517	144.83
2.63027	144.251
2.64545	143.673
2.66073	143.097
2.67609	142.523
2.69153	141.951
2.70707	141.38
2.7227	140.811
2.73842	140.244
2.75423	139.679
2.77013	139.116
2.78612	138.555
2.80221	137.995
2.81838	137.438
2.83465	136.882
2.85102	136.328
2.86748	135.777
2.88403	135.227
2.90068	134.679
2.91743	134.133
2.93427	133.588
2.95121	133.046
2.96825	132.506
2.98538	131.968
3.00262	131.431
3.01995	130.897
3.03739	130.364
3.05492	129.834
3.07256	129.305
3.0903	128.779
3.10814	128.254
3.12608	127.731
3.14413	127.211
3.16228	126.692
3.18053	126.175
3.1989	125.661
3.21736	125.148
3.23594	124.637
3.25462	124.128
3.27341	123.621
3.2923	123.117
3.31131	122.614
3.33043	122.113
3.34965	121.614
3.36899	121.117
3.38844	120.622
3.408	120.129
3.42768	119.638
3.44747	119.149
3.46737	118.662
3.48739	118.177
3.50752	117.694
3.52777	117.212
3.54813	116.733
3.56862	116.256
3.58922	115.781
3.60994	115.307
3.63078	114.836
3.65174	114.366
3.67282	113.899
3.69403	113.433
3.71535	112.97
3.7368	112.508
3.75837	112.048
3.78007	111.59
3.80189	111.134
3.82384	110.68
3.84592	110.228
3.86812	109.778
3.89045	109.329
3.91291	108.883
3.9355	108.438
3.95822	107.995
3.98107	107.554
4.00405	107.115
4.02717	106.678
4.05042	106.243
4.0738	105.81
4.09732	105.378
4.12098	104.948
4.14477	104.52
4.16869	104.094
4.19276	103.67
4.21697	103.247
4.24131	102.827
4.2658	102.408
4.29042	101.991
4.31519	101.575
4.3401	101.162
4.36516	100.75
4.39036	100.34
4.4157	99.9317
4.4412	99.5252
4.46684	99.1204
4.49262	98.7173
4.51856	98.316
4.54465	97.9164
4.57088	97.5185
4.59727	97.1223
4.62381	96.7278
4.6505	96.335
4.67735	95.9439
4.70435	95.5545
4.73151	95.1667
4.75883	94.7806
4.7863	94.3961
4.81393	94.0132
4.84172	93.6321
4.86968	93.2525
4.89779	92.8745
4.92606	92.4982
4.9545	92.1235
4.9831	91.7504
5.01187	91.3788
5.04081	91.0089
5.06991	90.6405
5.09918	90.2737
5.12861	89.91
5.15822	89.5462
5.188	89.1839
5.21795	88.8232
5.24807	88.464
5.27837	88.1063
5.30884	87.7502
5.33949	87.3955
5.37032	87.0424
5.40132	86.6908
5.4325	86.3406
5.46387	85.992
5.49541	85.6448
5.52713	85.2991
5.55904	84.9548
5.59114	84.612
5.62341	84.2706
5.65588	83.9307
5.68853	83.5922
5.72137	83.2551
5.7544	82.9194
5.78762	82.5851
5.82103	82.2522
5.85464	81.9207
5.88844	81.5906
5.92243	81.2619
5.95662	80.9345
5.99101	80.6085
6.0256	80.2838
6.06038	79.9605
6.09537	79.6385
6.13056	79.3179
6.16595	78.9985
6.20155	78.6805
6.23735	78.3638
6.27336	78.0484
6.30957	77.7343
6.346	77.4215
6.38263	77.11
6.41948	76.7997
6.45654	76.4907
6.49382	76.183
6.53131	75.8765
6.56901	75.5713
6.60693	75.2673
6.64508	74.9646
6.68344	74.663
6.72202	74.3627
6.76083	74.0637
6.79986	73.7658
6.83912	73.4691
6.8786	73.1736
6.91831	72.8793
6.95825	72.5862
6.99842	72.2943
7.03882	72.0036
7.07946	71.714
7.12033	71.4255
7.16143	71.1383
7.20278	70.8521
7.24436	70.5672
7.28618	70.2833
7.32825	70.0006
7.37055	69.719
7.4131	69.4385
7.4559	69.1591
7.49894	68.8809
7.54223	68.6037
7.58578	68.3277
7.62957	68.0527
7.67361	67.7788
7.71792	67.506
7.76247	67.2342
7.80728	66.9636
7.85236	66.694
7.89769	66.4254
7.94328	66.1579
7.98914	65.8833
8.03526	65.6094
8.08165	65.3365
8.12831	65.0645
8.17523	64.7933
8.22243	64.5232
8.2699	64.2577
8.31764	63.9892
8.36566	63.7217
8.41395	63.455
8.46253	63.1893
8.51138	62.9244
8.56052	62.6604
8.60994	62.3973
8.65964	62.1351
8.70964	61.8737
8.75992	61.6133
8.81049	61.3537
8.86135	61.103
8.91251	60.8452
8.96396	60.5906
9.01571	60.3345
9.06776	60.0792
9.12011	59.8249
9.17276	59.5714
9.22571	59.3187
9.27897	59.067
9.33254	58.8161
9.38642	58.5662
9.44061	58.317
9.49511	58.0687
9.54993	57.8213
9.60506	57.5747
9.66051	57.329
9.71628	57.1176
9.77237	56.8733
9.82879	56.6298
9.88553	56.3872
9.9426	56.1454
10	55.7924
10.0577	55.5607
10.1158	55.3198
10.1742	55.0798
10.2329	54.8407
10.292	54.6025
10.3514	54.3654
10.4112	54.1292
10.4713	53.8937
10.5317	53.6592
10.5925	53.4255
10.6537	53.1927
10.7152	52.9607
10.7771	52.7295
10.8393	52.4992
10.9018	52.2697
10.9648	52.0411
11.0281	51.8133
11.0917	51.5863
11.1558	51.3602
11.2202	51.1349
11.285	50.9105
11.3501	50.6868
11.4156	50.464
11.4815	50.242
11.5478	50.0209
11.6145	49.8006
11.6815	49.5811
11.749	49.3624
11.8168	49.1445
11.885	48.9582
11.9536	48.7418
12.0226	48.5263
12.0921	48.3115
12.1619	48.0976
12.2321	47.8845
12.3027	47.6721
12.3737	47.4606
12.4451	47.2499
12.517	47.0392
12.5893	46.83
12.6619	46.6217
12.735	46.4142
12.8086	46.2074
12.8825	46.0015
12.9569	45.7964
13.0317	45.592
13.1069	45.3885
13.1826	45.1857
13.2587	44.9838
13.3352	44.7826
13.4122	44.5822
13.4896	44.3845
13.5675	44.1857
13.6458	43.9876
13.7246	43.7904
13.8038	43.5939
13.8835	43.3982
13.9637	43.2035
14.0443	43.0138
14.1254	42.8249
14.2069	42.6366
14.2889	42.449
14.3714	42.2621
14.4544	42.0759
14.5378	41.8904
14.6218	41.7056
14.7062	41.5215
14.7911	41.3381
14.8765	41.1554
14.9624	40.9734
15.0487	40.7921
15.1356	40.6115
15.223	40.4316
15.3109	40.2523
15.3993	40.0738
15.4882	39.896
15.5776	39.7188
15.6675	39.5423
15.758	39.3665
15.8489	39.1914
15.9404	39.017
16.0325	38.8433
16.125	38.6702
16.2181	38.4979
16.3117	38.3367
16.4059	38.1655
16.5006	37.995
16.5959	37.8251
16.6917	37.656
16.788	37.4875
16.885	37.3197
16.9824	37.1525
17.0805	36.9861
17.1791	36.8203
17.2783	36.6551
17.378	36.4907
17.4783	36.3269
17.5792	36.1638
17.6807	36.0013
17.7828	35.8639
17.8855	35.7024
17.9887	35.5417
18.0926	35.3816
18.197	35.2221
18.3021	35.0634
18.4077	34.9052
18.514	34.7478
18.6209	34.5909
18.7284	34.4348
18.8365	34.2793
18.9452	34.1244
19.0546	33.9702
19.1646	33.8166
19.2752	33.6636
19.3865	33.5114
19.4984	33.3597
19.611	33.2087
19.7242	33.0583
19.8381	32.9086
19.9526	32.7595
20.0678	32.611
20.1837	32.4631
20.3002	32.3159
20.4174	32.1693
20.5353	32.0233
20.6538	31.8779
20.773	31.7331
20.893	31.589
21.0136	31.4455
21.1349	31.3026
21.2569	31.1603
21.3796	31.0186
21.503	30.8775
21.6272	30.737
21.752	30.5972
21.8776	30.4579
22.0039	30.3192
22.1309	30.1812
22.2587	30.0437
22.3872	29.9068
22.5165	29.7711
22.6464	29.6354
22.7772	29.5002
22.9087	29.3719
23.0409	29.2378
23.1739	29.1044
23.3077	28.9715
23.4423	28.8391
23.5776	28.7073
23.7137	28.5762
23.8506	28.4455
23.9883	28.3155
24.1268	28.186
24.2661	28.0571
24.4062	27.9288
24.5471	27.801
24.6888	27.6737
24.8313	27.5471
24.9747	27.421
25.1189	27.2954
25.2639	27.1704
25.4097	27.0459
25.5564	26.922
25.704	26.7986
25.8523	26.6758
26.0016	26.5535
26.1517	26.4317
26.3027	26.3105
26.4545	26.1898
26.6073	26.0697
26.7609	25.95
26.9153	25.8309
27.0707	25.7124
27.227	25.5943
27.3842	25.4768
27.5423	25.3598
27.7013	25.2433
27.8612	25.1273
28.0221	25.0119
28.1838	24.8969
28.3465	24.7825
28.5102	24.6686
28.6748	24.5552
28.8403	24.4422
29.0068	24.3298
29.1743	24.2179
29.3427	24.1065
29.5121	23.9956
29.6825	23.8852
29.8538	23.7829
30.0262	23.6733
30.1995	23.5642
30.3739	23.4556
30.5492	23.3475
30.7256	23.2398
30.903	23.1326
31.0814	23.026
31.2608	22.9198
31.4413	22.814
31.6228	22.7091
31.8053	22.6043
31.989	22.5
32.1736	22.3961
32.3594	22.2927
32.5462	22.1898
32.7341	22.0874
32.923	21.9854
33.1131	21.8838
33.3043	21.7828
33.4965	21.6822
33.6899	21.582
33.8844	21.4823
34.08	21.383
34.2768	21.2842
34.4747	21.1858
34.6737	21.0879
34.8739	20.9904
35.0752	20.8933
35.2777	20.7967
35.4813	20.7005
35.6862	20.6047
35.8922	20.5094
36.0994	20.4145
36.3078	20.32
36.5174	20.226
36.7282	20.1323
36.9403	20.0391
37.1535	19.9463
37.368	19.854
37.5837	19.762
37.8007	19.6705
38.0189	19.5794
38.2384	19.4887
38.4592	19.3984
38.6812	19.3085
38.9045	19.219
39.1291	19.1299
39.355	19.0412
39.5822	18.9529
39.8107	18.865
40.0405	18.7776
40.2717	18.6905
40.5042	18.6038
40.738	18.5175
40.9732	18.4316
41.2098	18.3461
41.4477	18.2609
41.6869	18.1762
41.9276	18.0964
42.1697	18.0123
42.4131	17.9287
42.658	17.8454
42.9042	17.7625
43.1519	17.6799
43.401	17.5978
43.6516	17.516
43.9036	17.4346
44.157	17.3535
44.412	17.2728
44.6684	17.1925
44.9262	17.1126
45.1856	17.033
45.4465	16.9538
45.7088	16.8749
45.9727	16.7964
46.2381	16.7183
46.505	16.6405
46.7735	16.5631
47.0435	16.486
47.3151	16.4093
47.5883	16.3329
47.863	16.2569
48.1393	16.1812
48.4172	16.1059
48.6968	16.0309
48.9779	15.9563
49.2606	15.882
49.545	15.808
49.831	15.7344
50.1187	15.6611
50.4081	15.5882
50.6991	15.5156
50.9918	15.4433
51.2861	15.3713
51.5822	15.2997
51.88	15.2284
52.1795	15.1575
52.4807	15.0868
52.7837	15.0165
53.0884	14.9465
53.3949	14.8769
53.7032	14.8075
54.0132	14.7385
54.325	14.6698
54.6387	14.6014
54.9541	14.5333
55.2713	14.4655
55.5904	14.3981
55.9114	14.3309
56.2341	14.2641
56.5588	14.1976
56.8853	14.1313
57.2137	14.0654
57.544	13.9998
57.8762	13.9345
58.2103	13.8695
58.5464	13.8048
58.8844	13.7404
59.2243	13.6763
59.5662	13.6124
59.9101	13.5489
60.256	13.4857
60.6038	13.4228
60.9537	13.3601
61.3056	13.2978
61.6595	13.2357
62.0155	13.174
62.3735	13.1125
62.7336	13.0513
63.0957	12.9904
63.46	12.9298
63.8263	12.8694
64.1948	12.8093
64.5654	12.7495
64.9382	12.69
65.3131	12.6308
65.6901	12.5718
66.0693	12.5131
66.4508	12.4547
66.8344	12.3966
67.2202	12.3387
67.6083	12.2811
67.9986	12.2237
68.3912	12.1667
68.786	12.1098
69.1831	12.0533
69.5825	11.997
69.9842	11.941
70.3882	11.8852
70.7946	11.8297
71.2033	11.7745
71.6143	11.7195
72.0278	11.6647
72.4436	11.6102
72.8618	11.556
73.2825	11.502
73.7055	11.4483
74.131	11.3948
74.559	11.3416
74.9894	11.2886
75.4223	11.2359
75.8578	11.1834
76.2957	11.1312
76.7361	11.0792
77.1792	11.0274
77.6247	10.9759
78.0728	10.9247
78.5236	10.8736
78.9769	10.8228
79.4328	10.7723
79.8914	10.722
80.3526	10.6719
80.8165	10.622
81.2831	10.5724
81.7523	10.523
82.2243	10.4739
82.699	10.425
83.1764	10.3763
83.6566	10.3278
84.1395	10.2796
84.6253	10.2315
85.1138	10.1838
85.6052	10.1362
86.0994	10.0889
86.5964	10.0417
87.0964	9.99484
87.5992	9.94816
88.1049	9.90171
88.6135	9.85547
89.1251	9.80945
89.6396	9.76364
90.1571	9.71805
90.6776	9.67267
91.2011	9.62751
91.7276	9.58256
92.2571	9.53782
92.7897	9.4933
93.3254	9.44898
93.8642	9.40487
94.4061	9.36097
94.9511	9.31728
95.4993	9.27379
96.0506	9.23051
96.6051	9.18743
97.1628	9.14455
97.7237	9.10188
98.2879	9.05941
98.8553	9.01714
99.426	8.97507
100	8.93319
100.577	8.89152
101.158	8.85004
101.742	8.80875
102.329	8.76767
102.92	8.72678
103.514	8.68608
104.112	8.64558
104.713	8.60527
105.317	8.56515
105.925	8.52522
106.537	8.48548
107.152	8.44592
107.771	8.40656
108.393	8.36738
109.018	8.32839
109.648	8.28959
110.281	8.25097
110.917	8.21253
111.558	8.17427
112.202	8.1362
112.85	8.09831
113.501	8.0606
114.156	8.02306
114.815	7.9857
115.478	7.94853
116.145	7.91153
116.815	7.87471
117.49	7.83806
118.168	7.80158
118.85	7.76529
119.536	7.72916
120.226	7.69321
120.921	7.65742
121.619	7.62181
122.321	7.58637
123.027	7.55109
123.737	7.51599
124.451	7.48106
125.17	7.44629
125.893	7.41169
126.619	7.37725
127.35	7.34298
128.086	7.30887
128.825	7.27493
129.569	7.24115
130.317	7.20753
131.069	7.17407
131.826	7.14077
132.587	7.10764
133.352	7.07466
134.122	7.04183
134.896	7.00917
135.675	6.97666
136.458	6.94431
137.246	6.91212
138.038	6.88008
138.835	6.84819
139.637	6.81646
140.443	6.78487
141.254	6.75345
142.069	6.72217
142.889	6.69104
143.714	6.66006
144.544	6.62923
145.378	6.59855
146.218	6.56802
147.062	6.53764
147.911	6.5074
148.765	6.47731
149.624	6.44736
150.487	6.41755
151.356	6.38789
152.23	6.35838
153.109	6.329
153.993	6.29977
154.882	6.27068
155.776	6.24173
156.675	6.21292
157.58	6.18425
158.489	6.15572
159.404	6.12731
160.325	6.09906
161.25	6.07094
162.181	6.04295
163.117	6.0151
164.059	5.98739
165.006	5.95981
165.959	5.93237
166.917	5.90505
167.88	5.87787
168.85	5.85083
169.824	5.82391
170.805	5.79712
171.791	5.77047
172.783	5.74394
173.78	5.71754
174.783	5.69127
175.792	5.66513
176.807	5.63912
177.828	5.61323
178.855	5.58747
179.887	5.56183
180.926	5.53632
181.97	5.51093
183.021	5.48567
184.077	5.46053
185.14	5.43551
186.209	5.41061
187.284	5.38584
188.365	5.36118
189.452	5.33665
190.546	5.31223
191.646	5.28794
192.752	5.26376
193.865	5.2397
194.984	5.21576
196.11	5.19194
197.242	5.16823
198.381	5.14464
199.526	5.12116
200.678	5.0978
201.837	5.07455
203.002	5.05142
204.174	5.0284
205.353	5.00549
206.538	4.9827
207.73	4.96001
208.93	4.93744
210.136	4.91498
211.349	4.89263
212.569	4.87039
213.796	4.84826
215.03	4.82623
216.272	4.80432
217.52	4.78251
218.776	4.76081
220.039	4.73921
221.309	4.71772
222.587	4.69634
223.872	4.67506
225.165	4.65389
226.464	4.63282
227.772	4.61186
229.087	4.591
230.409	4.57024
231.739	4.54958
233.077	4.52903
234.423	4.50857
235.776	4.48822
237.137	4.46797
238.506	4.44782
239.883	4.42776
241.268	4.40781
242.661	4.38795
244.062	4.3682
245.471	4.34854
246.888	4.32898
248.313	4.30951
249.747	4.29014
251.189	4.27087
252.639	4.25169
254.097	4.23261
255.564	4.21362
257.04	4.19472
258.523	4.17592
260.016	4.15722
261.517	4.1386
263.027	4.12008
264.545	4.10165
266.073	4.08331
267.609	4.06506
269.153	4.0469
270.707	4.02884
272.27	4.01086
273.842	3.99297
275.423	3.97517
277.013	3.95746
278.612	3.93984
280.221	3.9223
281.838	3.90485
283.465	3.88749
285.102	3.87022
286.748	3.85303
288.403	3.83593
290.068	3.81891
291.743	3.80198
293.427	3.78513
295.121	3.76836
296.825	3.75168
298.538	3.73509
300.262	3.71857
301.995	3.70214
303.739	3.68579
305.492	3.66952
307.256	3.65334
309.03	3.63723
310.814	3.62121
312.608	3.60526
314.413	3.5894
316.228	3.57361
318.053	3.5579
319.89	3.54228
321.736	3.52673
323.594	3.51126
325.462	3.49586
327.341	3.48055
329.23	3.46531
331.131	3.45014
333.043	3.43506
334.965	3.42005
336.899	3.40511
338.844	3.39025
340.8	3.37546
342.768	3.36075
344.747	3.34611
346.737	3.33155
348.739	3.31706
350.752	3.30264
352.777	3.2883
354.813	3.27403
356.862	3.25983
358.922	3.2457
360.994	3.23164
363.078	3.21765
365.174	3.20374
367.282	3.18989
369.403	3.17612
371.535	3.16241
373.68	3.14877
375.837	3.13521
378.007	3.12171
380.189	3.10828
382.384	3.09491
384.592	3.08162
386.812	3.06839
389.045	3.05523
391.291	3.04214
393.55	3.02911
395.822	3.01615
398.107	3.00325
400.405	2.99042
402.717	2.97766
405.042	2.96496
407.38	2.95232
409.732	2.93975
412.098	2.92724
414.477	2.9148
416.869	2.90242
419.276	2.8901
421.697	2.87785
424.131	2.86566
426.58	2.85353
429.042	2.84146
431.519	2.82945
434.01	2.81751
436.516	2.80563
439.036	2.7938
441.57	2.78204
444.12	2.77034
446.684	2.75869
449.262	2.74711
451.856	2.73559
454.465	2.72412
457.088	2.71272
459.727	2.70137
462.381	2.69008
465.05	2.67885
467.735	2.66767
470.435	2.65656
473.151	2.6455
475.883	2.6345
478.63	2.62355
481.393	2.61266
484.172	2.60183
486.968	2.59105
489.779	2.58032
492.606	2.56966
495.45	2.55904
498.31	2.54849
501.187	2.53798
504.081	2.52753
506.991	2.51714
509.918	2.5068
512.861	2.49651
515.822	2.48628
518.8	2.47609
521.795	2.46596
524.807	2.45589
527.837	2.44586
530.884	2.43589
533.949	2.42597
537.032	2.4161
540.132	2.40628
543.25	2.39651
546.387	2.38679
549.541	2.37713
552.713	2.36751
555.904	2.35795
559.114	2.34843
562.341	2.33896
565.588	2.32954
568.853	2.32018
572.137	2.31086
575.44	2.30158
578.762	2.29236
582.103	2.28319
585.464	2.27406
588.844	2.26498
592.243	2.25595
595.662	2.24696
599.101	2.23803
602.56	2.22913
606.038	2.22029
609.537	2.21149
613.056	2.20274
616.595	2.19403
620.155	2.18537
623.735	2.17676
627.336	2.16819
630.957	2.15966
634.6	2.15118
638.263	2.14275
641.948	2.13436
645.654	2.12601
649.382	2.11771
653.131	2.10945
656.901	2.10123
660.693	2.09306
664.508	2.08493
668.344	2.07685
672.202	2.0688
676.083	2.0608
679.986	2.05284
683.912	2.04493
687.86	2.03705
691.831	2.02922
695.825	2.02143
699.842	2.01368
703.882	2.00597
707.946	1.9983
712.033	1.99068
716.143	1.98309
720.278	1.97554
724.436	1.96804
728.618	1.96057
732.825	1.95314
737.055	1.94576
741.31	1.93841
745.59	1.9311
749.894	1.92383
754.223	1.9166
758.578	1.90941
762.957	1.90226
767.361	1.89515
771.792	1.88807
776.247	1.88103
780.728	1.87403
785.236	1.86707
789.769	1.86014
794.328	1.85325
798.914	1.8464
803.526	1.83959
808.165	1.83281
812.831	1.82607
817.523	1.81936
822.243	1.81269
826.99	1.80606
831.764	1.79946
836.566	1.7929
841.395	1.78638
846.253	1.77989
851.138	1.77343
856.052	1.76701
860.994	1.76063
865.964	1.75428
870.964	1.74796
875.992	1.74168
881.049	1.73543
886.135	1.72922
891.251	1.72304
896.396	1.71689
901.571	1.71078
906.776	1.7047
912.011	1.69866
917.276	1.69264
922.571	1.68666
927.897	1.68072
933.254	1.6748
938.642	1.66892
944.061	1.66307
949.511	1.65725
954.993	1.65147
960.506	1.64571
966.051	1.63999
971.628	1.6343
977.237	1.62864
982.879	1.62302
988.553	1.61742
994.26	1.61185
1000	1.60632
1005.77	1.60082
1011.58	1.59534
1017.42	1.5899
1023.29	1.58449
1029.2	1.5791
1035.14	1.57375
1041.12	1.56843
1047.13	1.56314
1053.17	1.55787
1059.25	1.55264
1065.37	1.54743
1071.52	1.54226
1077.71	1.53711
1083.93	1.53199
1090.18	1.5269
1096.48	1.52184
1102.81	1.51681
1109.17	1.5118
1115.58	1.50683
1122.02	1.50188
1128.5	1.49696
1135.01	1.49207
1141.56	1.48721
1148.15	1.48237
1154.78	1.47756
1161.45	1.47278
1168.15	1.46802
1174.9	1.46329
1181.68	1.45859
1188.5	1.45392
1195.36	1.44927
1202.26	1.44465
1209.21	1.44006
1216.19	1.43549
1223.21	1.43094
1230.27	1.42643
1237.37	1.42194
1244.51	1.41747
1251.7	1.41303
1258.93	1.40862
1266.19	1.40423
1273.5	1.39987
1280.86	1.39553
1288.25	1.39122
1295.69	1.38693
1303.17	1.38267
1310.69	1.37843
1318.26	1.37422
1325.87	1.37003
1333.52	1.36587
1341.22	1.36173
1348.96	1.35761
1356.75	1.35352
1364.58	1.34945
1372.46	1.34541
1380.38	1.34139
1388.35	1.33739
1396.37	1.33342
1404.43	1.32947
1412.54	1.32554
1420.69	1.32163
1428.89	1.31775
1437.14	1.3139
1445.44	1.31006
1453.78	1.30625
1462.18	1.30246
1470.62	1.29869
1479.11	1.29495
1487.65	1.29123
1496.24	1.28753
1504.87	1.28385
1513.56	1.28019
1522.3	1.27656
1531.09	1.27295
1539.93	1.26936
1548.82	1.26579
1557.76	1.26224
1566.75	1.25872
1575.8	1.25521
1584.89	1.25173
1594.04	1.24827
1603.25	1.24483
1612.5	1.24141
1621.81	1.23801
1631.17	1.23463
1640.59	1.23127
1650.06	1.22793
1659.59	1.22462
1669.17	1.22132
1678.8	1.21804
1688.5	1.21479
1698.24	1.21155
1708.05	1.20833
1717.91	1.20514
1727.83	1.20196
1737.8	1.1988
1747.83	1.19567
1757.92	1.19255
1768.07	1.18945
1778.28	1.18637
1788.55	1.18331
1798.87	1.18027
1809.26	1.17725
1819.7	1.17425
1830.21	1.17127
1840.77	1.1683
1851.4	1.16535
1862.09	1.16243
1872.84	1.15952
1883.65	1.15663
1894.52	1.15376
1905.46	1.1509
1916.46	1.14807
1927.52	1.14525
1938.65	1.14245
1949.84	1.13967
1961.1	1.13691
1972.42	1.13416
1983.81	1.13143
1995.26	1.12872
2006.78	1.12603
2018.37	1.12336
2030.02	1.1207
2041.74	1.11806
2053.53	1.11544
2065.38	1.11283
2077.3	1.11024
2089.3	1.10767
2101.36	1.10512
2113.49	1.10258
2125.69	1.10006
2137.96	1.09755
2150.3	1.09507
2162.72	1.09259
2175.2	1.09014
2187.76	1.0877
2200.39	1.08528
2213.09	1.08287
2225.87	1.08048
2238.72	1.07811
2251.65	1.07575
2264.64	1.07341
2277.72	1.07109
2290.87	1.06878
2304.09	1.06648
2317.39	1.06421
2330.77	1.06194
2344.23	1.0597
2357.76	1.05746
2371.37	1.05525
2385.06	1.05305
2398.83	1.05086
2412.68	1.04869
2426.61	1.04654
2440.62	1.0444
2454.71	1.04227
2468.88	1.04016
2483.13	1.03807
2497.47	1.03598
2511.89	1.03392
2526.39	1.03187
2540.97	1.02983
2555.64	1.02781
2570.4	1.0258
2585.23	1.02381
2600.16	1.02183
2615.17	1.01986
2630.27	1.01791
2645.45	1.01598
2660.73	1.01406
2676.09	1.01215
2691.53	1.01025
2707.07	1.00837
2722.7	1.00651
2738.42	1.00465
2754.23	1.00281
2770.13	1.00099
2786.12	0.999176
2802.21	0.997377
2818.38	0.995592
2834.65	0.993821
2851.02	0.992062
2867.48	0.990317
2884.03	0.988586
2900.68	0.986867
2917.43	0.985161
2934.27	0.983469
2951.21	0.981789
2968.25	0.980122
2985.38	0.978469
3002.62	0.976828
3019.95	0.975199
3037.39	0.973584
3054.92	0.971981
3072.56	0.97039
3090.3	0.968812
3108.14	0.967247
3126.08	0.965694
3144.13	0.964153
3162.28	0.962625
3180.53	0.961109
3198.9	0.959605
3217.36	0.958113
3235.94	0.956633
3254.62	0.955165
3273.41	0.953709
3292.3	0.952265
3311.31	0.950833
3330.43	0.949413
3349.65	0.948004
3368.99	0.946608
3388.44	0.945222
3408	0.943849
3427.68	0.942487
3447.47	0.941136
3467.37	0.939797
3487.39	0.938469
3507.52	0.937153
3527.77	0.935847
3548.13	0.934554
3568.62	0.933271
3589.22	0.931999
3609.94	0.930739
3630.78	0.929489
3651.74	0.92825
3672.82	0.927023
3694.03	0.925806
3715.35	0.9246
3736.8	0.923405
3758.37	0.922221
3780.07	0.921047
3801.89	0.919884
3823.84	0.918731
3845.92	0.917589
3868.12	0.916436
3890.45	0.915215
3912.91	0.914005
3935.5	0.912805
3958.22	0.911615
3981.07	0.910435
4004.05	0.909266
4027.17	0.908106
4050.42	0.906956
4073.8	0.905816
4097.32	0.904686
4120.98	0.903566
4144.77	0.902456
4168.69	0.901355
4192.76	0.900264
4216.97	0.899183
4241.31	0.898111
4265.8	0.897048
4290.42	0.895996
4315.19	0.894952
4340.1	0.893918
4365.16	0.892894
4390.36	0.891878
4415.7	0.890872
4441.2	0.889875
4466.84	0.888888
4492.62	0.887909
4518.56	0.88694
4544.65	0.885979
4570.88	0.885028
4597.27	0.884085
4623.81	0.883152
4650.5	0.882227
4677.35	0.881311
4704.35	0.880404
4731.51	0.879505
4758.83	0.878615
4786.3	0.877734
4813.93	0.876862
4841.72	0.875998
4869.68	0.875142
4897.79	0.874295
4926.06	0.873457
4954.5	0.872627
4983.1	0.871805
5011.87	0.870991
5040.81	0.870186
5069.91	0.869389
5099.18	0.8686
5128.61	0.867819
5158.22	0.867047
5188	0.866282
5217.95	0.865526
5248.07	0.864777
5278.37	0.864036
5308.84	0.863304
5339.49	0.862579
5370.32	0.861862
5401.32	0.861152
5432.5	0.860451
5463.87	0.859757
5495.41	0.85907
5527.13	0.858392
5559.04	0.857721
5591.14	0.857057
5623.41	0.856401
5655.88	0.855753
5688.53	0.855112
5721.37	0.854478
5754.4	0.853852
5787.62	0.853233
5821.03	0.852621
5854.64	0.852016
5888.44	0.851419
5922.43	0.850829
5956.62	0.850246
5991.01	0.84967
6025.6	0.849101
6060.38	0.848539
6095.37	0.847984
6130.56	0.847436
6165.95	0.846895
6201.55	0.84636
6237.35	0.845833
6273.36	0.845312
6309.57	0.844798
6346	0.844291
6382.63	0.843791
6419.48	0.843297
6456.54	0.84281
6493.82	0.842329
6531.31	0.841855
6569.01	0.841387
6606.93	0.840926
6645.08	0.840471
6683.44	0.840023
6722.02	0.839581
6760.83	0.839146
6799.86	0.838716
6839.12	0.838293
6878.6	0.837877
6918.31	0.837466
6958.25	0.837062
6998.42	0.836663
7038.82	0.836271
7079.46	0.835885
7120.33	0.835505
7161.43	0.835131
7202.78	0.834763
7244.36	0.8344
7286.18	0.834044
7328.25	0.833694
7370.55	0.833349
7413.1	0.83301
7455.9	0.832677
7498.94	0.83235
7542.23	0.832028
7585.78	0.831712
7629.57	0.831402
7673.61	0.831097
7717.92	0.830798
7762.47	0.830505
7807.28	0.830217
7852.36	0.829934
7897.69	0.829657
7943.28	0.829385
7989.14	0.829119
8035.26	0.828858
8081.65	0.828602
8128.31	0.828352
8175.23	0.828107
8222.43	0.827867
8269.9	0.827632
8317.64	0.827403
8365.66	0.827179
8413.95	0.826959
8462.53	0.826745
8511.38	0.826536
8560.52	0.826332
8609.94	0.826133
8659.64	0.825939
8709.64	0.82575
8759.92	0.825566
8810.49	0.825386
8861.35	0.825212
8912.51	0.825042
8963.96	0.824877
9015.71	0.824717
9067.76	0.824562
9120.11	0.824411
9172.76	0.824265
9225.71	0.824124
9278.97	0.823987
9332.54	0.823855
9386.42	0.823727
9440.61	0.823604
9495.11	0.823486
9549.93	0.823372
9605.06	0.823262
9660.51	0.823157
9716.28	0.823056
9772.37	0.82296
9828.79	0.822868
9885.53	0.82278
9942.6	0.822696
10000	0.822617
10057.7	0.822542
10115.8	0.822472
10174.2	0.822405
10232.9	0.822343
10292	0.822285
10351.4	0.822231
10411.2	0.82218
10471.3	0.822135
10531.7	0.822093
10592.5	0.822055
10653.7	0.822021
10715.2	0.821991
10777.1	0.821965
10839.3	0.821943
10901.8	0.821924
10964.8	0.82191
11028.1	0.821899
11091.7	0.821892
11155.8	0.821889
11220.2	0.82189
11285	0.821895
11350.1	0.821903
11415.6	0.821915
11481.5	0.82193
11547.8	0.821949
11614.5	0.821972
11681.5	0.821999
11749	0.822029
11816.8	0.822062
11885	0.822099
11953.6	0.822139
12022.6	0.822183
12092.1	0.822231
12161.9	0.822282
12232.1	0.822336
12302.7	0.822393
12373.7	0.822454
12445.1	0.822519
12517	0.822586
12589.3	0.822657
12661.9	0.822731
12735	0.822809
12808.6	0.822889
12882.5	0.822973
12956.9	0.82306
13031.7	0.82315
13106.9	0.823243
13182.6	0.82334
13258.7	0.823439
13335.2	0.823542
13412.2	0.823647
13489.6	0.823756
13567.5	0.823867
13645.8	0.823982
13724.6	0.824099
13803.8	0.82422
13883.5	0.824343
13963.7	0.82447
14044.3	0.824599
14125.4	0.824731
14206.9	0.824866
14288.9	0.825003
14371.4	0.825144
14454.4	0.825287
14537.8	0.825433
14621.8	0.825582
14706.2	0.825733
14791.1	0.825887
14876.5	0.826044
14962.4	0.826203
15048.7	0.826366
15135.6	0.82653
15223	0.826698
15310.9	0.826867
15399.3	0.82704
15488.2	0.827215
15577.6	0.827392
15667.5	0.827572
15758	0.827755
15848.9	0.82794
15940.4	0.828127
16032.5	0.828317
16125	0.828509
16218.1	0.828704
16311.7	0.828901
16405.9	0.8291
16500.6	0.829302
16595.9	0.829506
16691.7	0.829712
16788	0.829921
16885	0.830132
16982.4	0.830345
17080.5	0.83056
17179.1	0.830778
17278.3	0.830998
17378	0.83122
17478.3	0.831444
17579.2	0.83167
17680.7	0.831898
17782.8	0.832129
17885.5	0.832361
17988.7	0.832596
18092.6	0.832833
18197	0.833071
18302.1	0.833312
18407.7	0.833555
18514	0.8338
18620.9	0.834047
18728.4	0.834295
18836.5	0.834546
18945.2	0.834799
19054.6	0.835053
19164.6	0.83531
19275.2	0.835568
19386.5	0.835828
19498.4	0.83609
19611	0.836354
19724.2	0.83662
19838.1	0.836887
19952.6	0.837157
20067.8	0.837428
20183.7	0.8377
20300.2	0.837975
20417.4	0.838251
20535.3	0.838529
20653.8	0.838809
20773	0.839091
20893	0.839374
21013.6	0.839659
21134.9	0.839945
21256.9	0.840233
21379.6	0.840523
21503	0.840814
21627.2	0.841107
21752	0.841401
21877.6	0.841697
22003.9	0.841995
22130.9	0.842294
22258.7	0.842595
22387.2	0.842897
22516.5	0.8432
22646.4	0.843505
22777.2	0.843812
22908.7	0.84412
23040.9	0.84443
23173.9	0.844741
23307.7	0.845053
23442.3	0.845367
23577.6	0.845682
23713.7	0.845998
23850.6	0.846316
23988.3	0.846635
24126.8	0.846956
24266.1	0.847278
24406.2	0.847601
24547.1	0.847926
24688.8	0.848251
24831.3	0.848579
24974.7	0.848907
25118.9	0.849237
25263.9	0.849567
25409.7	0.8499
25556.4	0.850233
25704	0.850568
25852.3	0.850903
26001.6	0.85124
26151.7	0.851578
26302.7	0.851918
26454.5	0.852258
26607.3	0.8526
26760.9	0.852942
26915.3	0.853286
27070.7	0.853631
27227	0.853977
27384.2	0.854324
27542.3	0.854673
27701.3	0.855022
27861.2	0.855372
28022.1	0.855724
28183.8	0.856076
28346.5	0.85643
28510.2	0.856784
28674.8	0.85714
28840.3	0.857496
29006.8	0.857853
29174.3	0.858212
29342.7	0.858571
29512.1	0.858932
29682.5	0.859293
29853.8	0.859655
30026.2	0.860018
30199.5	0.860383
30373.9	0.860748
30549.2	0.861113
30725.6	0.86148
30903	0.861848
31081.4	0.862216
31260.8	0.862586
31441.3	0.862956
31622.8	0.863327
31805.3	0.863699
31989	0.864072
32173.6	0.864446
32359.4	0.86482
32546.2	0.865195
32734.1	0.865571
32923	0.865948
33113.1	0.866325
33304.3	0.866704
33496.5	0.867083
33689.9	0.867463
33884.4	0.867843
34080	0.868224
34276.8	0.868606
34474.7	0.868989
34673.7	0.869373
34873.9	0.869757
35075.2	0.870141
35277.7	0.870527
35481.3	0.870913
35686.2	0.8713
35892.2	0.871687
36099.4	0.872076
36307.8	0.872464
36517.4	0.872854
36728.2	0.873244
36940.3	0.873635
37153.5	0.874026
37368	0.874418
37583.7	0.87481
37800.7	0.875204
38018.9	0.875597
38238.4	0.875992
38459.2	0.876386
38681.2	0.876782
38904.5	0.877178
39129.1	0.877574
39355	0.877971
39582.2	0.878369
39810.7	0.878767
40040.5	0.879166
40271.7	0.879565
40504.2	0.879965
40738	0.880365
40973.2	0.880766
41209.8	0.881167
41447.7	0.881568
41686.9	0.881971
41927.6	0.882373
42169.7	0.882776
42413.1	0.88318
42658	0.883584
42904.2	0.883988
43151.9	0.884393
43401	0.884799
43651.6	0.885204
43903.6	0.885611
44157	0.886017
44412	0.886424
44668.4	0.886832
44926.2	0.887239
45185.6	0.887648
45446.5	0.888056
45708.8	0.888465
45972.7	0.888875
46238.1	0.889284
46505	0.889695
46773.5	0.890105
47043.5	0.890516
47315.1	0.890927
47588.3	0.891339
47863	0.891751
48139.3	0.892163
48417.2	0.892575
48696.8	0.892988
48977.9	0.893402
49260.6	0.893815
49545	0.894229
49831	0.894643
50118.7	0.895057
50408.1	0.895472
50699.1	0.895887
50991.8	0.896303
51286.1	0.896718
51582.2	0.897134
51880	0.89755
52179.5	0.897967
52480.7	0.898383
52783.7	0.8988
53088.4	0.899218
53394.9	0.899635
53703.2	0.900053
54013.2	0.900471
54325	0.900889
54638.7	0.901307
54954.1	0.901726
55271.3	0.902145
55590.4	0.902564
55911.4	0.902983
56234.1	0.903403
56558.8	0.903823
56885.3	0.904242
57213.7	0.904663
57544	0.905083
57876.2	0.905504
58210.3	0.905924
58546.4	0.906345
58884.4	0.906766
59224.3	0.907188
59566.2	0.907609
59910.1	0.908031
60256	0.908452
60603.8	0.908874
60953.7	0.909296
61305.6	0.909719
61659.5	0.910141
62015.5	0.910564
62373.5	0.910986
62733.6	0.911409
63095.7	0.911832
63460	0.912255
63826.3	0.912679
64194.8	0.913102
64565.4	0.913526
64938.2	0.913949
65313.1	0.914373
65690.1	0.914797
66069.3	0.915221
66450.8	0.915645
66834.4	0.916069
67220.2	0.916493
67608.3	0.916918
67998.6	0.917342
68391.2	0.917767
68786	0.918191
69183.1	0.918616
69582.5	0.919041
69984.2	0.919466
70388.2	0.919891
70794.6	0.920316
71203.3	0.920741
71614.3	0.921167
72027.8	0.921592
72443.6	0.922017
72861.8	0.922443
73282.5	0.922868
73705.5	0.923294
74131	0.923719
74559	0.924145
74989.4	0.924571
75422.3	0.924996
75857.8	0.925422
76295.7	0.925848
76736.1	0.926274
77179.2	0.9267
77624.7	0.927126
78072.8	0.927552
78523.6	0.927978
78976.9	0.928404
79432.8	0.92883
79891.4	0.929256
80352.6	0.929682
80816.5	0.930108
81283.1	0.930534
81752.3	0.93096
82224.3	0.931387
82699	0.931813
83176.4	0.932239
83656.6	0.932665
84139.5	0.933091
84625.3	0.933517
85113.8	0.933944
85605.2	0.93437
86099.4	0.934796
86596.4	0.935222
87096.4	0.935648
87599.2	0.936074
88104.9	0.936501
88613.5	0.936927
89125.1	0.937353
89639.6	0.937779
90157.1	0.938205
90677.6	0.938631
91201.1	0.939057
91727.6	0.939483
92257.1	0.939909
92789.7	0.940335
93325.4	0.940761
93864.2	0.941187
94406.1	0.941612
94951.1	0.942038
95499.3	0.942464
96050.6	0.94289
96605.1	0.943315
97162.8	0.943741
97723.7	0.944167
98287.9	0.944592
98855.3	0.945018
99426	0.945443
100000	0.945868
100577	0.946294
101158	0.946719
101742	0.947144
102329	0.947569
102920	0.947994
103514	0.948419
104112	0.948844
104713	0.949269
105317	0.949694
105925	0.950119
106537	0.950544
107152	0.950968
107771	0.951393
108393	0.951817
109018	0.952242
109648	0.952666
110281	0.95309
110917	0.953515
111558	0.953939
112202	0.954363
112850	0.954787
113501	0.955211
114156	0.955634
114815	0.956058
115478	0.956482
116145	0.956905
116815	0.957329
117490	0.957752
118168	0.958175
118850	0.958598
119536	0.959021
120226	0.959444
120921	0.959867
121619	0.96029
122321	0.960713
123027	0.961135
123737	0.961558
124451	0.96198
125170	0.962403
125893	0.962825
126619	0.963247
127350	0.963669
128086	0.964091
128825	0.964512
129569	0.964934
130317	0.965356
131069	0.965777
131826	0.966199
132587	0.96662
133352	0.967041
134122	0.967462
134896	0.967883
135675	0.968304
136458	0.968724
137246	0.969145
138038	0.969565
138835	0.969985
139637	0.970406
140443	0.970826
141254	0.971246
142069	0.971666
142889	0.972085
143714	0.972505
144544	0.972924
145378	0.973344
146218	0.973763
147062	0.974182
147911	0.974601
148765	0.97502
149624	0.975438
150487	0.975857
151356	0.976275
152230	0.976694
153109	0.977112
153993	0.97753
154882	0.977948
155776	0.978366
156675	0.978783
157580	0.979201
158489	0.979618
159404	0.980036
160325	0.980453
161250	0.98087
162181	0.981287
163117	0.981703
164059	0.98212
165006	0.982536
165959	0.982953
166917	0.983369
167880	0.983785
168850	0.984201
169824	0.984616
170805	0.985032
171791	0.985447
172783	0.985863
173780	0.986278
174783	0.986693
175792	0.987108
176807	0.987522
177828	0.987937
178855	0.988352
179887	0.988766
180926	0.98918
181970	0.989594
183021	0.990008
184077	0.990422
185140	0.990835
186209	0.991248
187284	0.991662
188365	0.992075
189452	0.992488
190546	0.992901
191646	0.993313
192752	0.993726
193865	0.994138
194984	0.99455
196110	0.994962
197242	0.995374
198381	0.995786
199526	0.996198
200678	0.996609
201837	0.99702
203002	0.997431
204174	0.997842
205353	0.998253
206538	0.998664
207730	0.999074
208930	0.999485
210136	0.999895
211349	1.0003
212569	1.00071
213796	1.00112
215030	1.00153
216272	1.00194
217520	1.00235
218776	1.00276
220039	1.00317
221309	1.00358
222587	1.00399
223872	1.0044
225165	1.0048
226464	1.00521
227772	1.00562
229087	1.00603
230409	1.00644
231739	1.00684
233077	1.00725
234423	1.00766
235776	1.00806
237137	1.00847
238506	1.00888
239883	1.00928
241268	1.00969
242661	1.0101
244062	1.0105
245471	1.01091
246888	1.01131
248313	1.01172
249747	1.01213
251189	1.01253
252639	1.01294
254097	1.01334
255564	1.01374
257040	1.01415
258523	1.01455
260016	1.01496
261517	1.01536
263027	1.01577
264545	1.01617
266073	1.01657
267609	1.01698
269153	1.01738
270707	1.01778
272270	1.01818
273842	1.01859
275423	1.01899
277013	1.01939
278612	1.01979
280221	1.0202
281838	1.0206
283465	1.021
285102	1.0214
286748	1.0218
288403	1.0222
290068	1.0226
291743	1.02301
293427	1.02341
295121	1.02381
296825	1.02421
298538	1.02461
300262	1.02501
301995	1.02541
303739	1.02581
305492	1.0262
307256	1.0266
309030	1.027
310814	1.0274
312608	1.0278
314413	1.0282
316228	1.0286
318053	1.029
319890	1.02939
321736	1.02979
323594	1.03019
325462	1.03059
327341	1.03098
329230	1.03138
331131	1.03178
333043	1.03217
334965	1.03257
336899	1.03297
338844	1.03336
340800	1.03376
342768	1.03416
344747	1.03455
346737	1.03495
348739	1.03534
350752	1.03574
352777	1.03613
354813	1.03653
356862	1.03692
358922	1.03732
360994	1.03771
363078	1.0381
365174	1.0385
367282	1.03889
369403	1.03929
371535	1.03968
373680	1.04007
375837	1.04047
378007	1.04086
380189	1.04125
382384	1.04164
384592	1.04204
386812	1.04243
389045	1.04282
391291	1.04321
393550	1.0436
395822	1.044
398107	1.04439
400405	1.04478
402717	1.04517
405042	1.04556
407380	1.04595
409732	1.04634
412098	1.04673
414477	1.04712
416869	1.04751
419276	1.0479
421697	1.04829
424131	1.04868
426580	1.04907
429042	1.04946
431519	1.04984
434010	1.05023
436516	1.05062
439036	1.05101
441570	1.0514
444120	1.05179
446684	1.05217
449262	1.05256
451856	1.05295
454465	1.05334
457088	1.05372
459727	1.05411
462381	1.0545
465050	1.05488
467735	1.05527
470435	1.05565
473151	1.05604
475883	1.05643
478630	1.05681
481393	1.0572
484172	1.05758
486968	1.05797
489779	1.05835
492606	1.05874
495450	1.05912
498310	1.0595
501187	1.05989
504081	1.06027
506991	1.06066
509918	1.06104
512861	1.06142
515822	1.06181
518800	1.06219
521795	1.06257
524807	1.06295
527837	1.06334
530884	1.06372
533949	1.0641
537032	1.06448
540132	1.06486
543250	1.06524
546387	1.06563
549541	1.06601
552713	1.06639
555904	1.06677
559114	1.06715
562341	1.06753
565588	1.06791
568853	1.06829
572137	1.06867
575440	1.06905
578762	1.06943
582103	1.06981
585464	1.07019
588844	1.07056
592243	1.07094
595662	1.07132
599101	1.0717
602560	1.07208
606038	1.07246
609537	1.07283
613056	1.07321
616595	1.07359
620155	1.07397
623735	1.07434
627336	1.07472
630957	1.0751
634600	1.07547
638263	1.07585
641948	1.07622
645654	1.0766
649382	1.07698
653131	1.07735
656901	1.07773
660693	1.0781
664508	1.07848
668344	1.07885
672202	1.07922
676083	1.0796
679986	1.07997
683912	1.08035
687860	1.08072
691831	1.08109
695825	1.08147
699842	1.08184
703882	1.08221
707946	1.08259
712033	1.08296
716143	1.08333
720278	1.0837
724436	1.08408
728618	1.08445
732825	1.08482
737055	1.08519
741310	1.08556
745590	1.08593
749894	1.0863
754223	1.08667
758578	1.08704
762957	1.08741
767361	1.08778
771792	1.08815
776247	1.08852
780728	1.08889
785236	1.08926
789769	1.08963
794328	1.09
798914	1.09037
803526	1.09074
808165	1.09111
812831	1.09147
817523	1.09184
822243	1.09221
826990	1.09258
831764	1.09294
836566	1.09331
841395	1.09368
846253	1.09404
851138	1.09441
856052	1.09478
860994	1.09514
865964	1.09551
870964	1.09588
875992	1.09624
881049	1.09661
886135	1.09697
891251	1.09734
896396	1.0977
901571	1.09807
906776	1.09843
912011	1.09879
917276	1.09916
922571	1.09952
927897	1.09989
933254	1.10025
938642	1.10061
944061	1.10098
949511	1.10134
954993	1.1017
960506	1.10206
966051	1.10243
971628	1.10279
977237	1.10315
982879	1.10351
988553	1.10387
994260	1.10423
1e+06	1.10459
1.00577e+06	1.10495
1.01158e+06	1.10532
1.01742e+06	1.10568
1.02329e+06	1.10604
1.0292e+06	1.1064
1.03514e+06	1.10676
1.04112e+06	1.10712
1.04713e+06	1.10747
1.05317e+06	1.10783
1.05925e+06	1.10819
1.06537e+06	1.10855
1.07152e+06	1.10891
1.07771e+06	1.10927
1.08393e+06	1.10963
1.09018e+06	1.10998
1.09648e+06	1.11034
1.10281e+06	1.1107
1.10917e+06	1.11106
1.11558e+06	1.11141
1.12202e+06	1.11177
1.1285e+06	1.11213
1.13501e+06	1.11248
1.14156e+06	1.11284
1.14815e+06	1.1132
1.15478e+06	1.11355
1.16145e+06	1.11391
1.16815e+06	1.11426
1.1749e+06	1.11462
1.18168e+06	1.11497
1.1885e+06	1.11533
1.19536e+06	1.11568
1.20226e+06	1.11604
1.20921e+06	1.11639
1.21619e+06	1.11675
1.22321e+06	1.1171
1.23027e+06	1.11745
1.23737e+06	1.11781
1.24451e+06	1.11816
1.2517e+06	1.11851
1.25893e+06	1.11887
1.26619e+06	1.11922
1.2735e+06	1.11957
1.28086e+06	1.11992
1.28825e+06	1.12028
1.29569e+06	1.12063
1.30317e+06	1.12098
1.31069e+06	1.12133
1.31826e+06	1.12168
1.32587e+06	1.12203
1.33352e+06	1.12238
1.34122e+06	1.12273
1.34896e+06	1.12309
1.35675e+06	1.12344
1.36458e+06	1.12379
1.37246e+06	1.12413
1.38038e+06	1.12448
1.38835e+06	1.12483
1.39637e+06	1.12518
1.40443e+06	1.12553
1.41254e+06	1.12588
1.42069e+06	1.12623
1.42889e+06	1.12658
1.43714e+06	1.12693
1.44544e+06	1.12727
1.45378e+06	1.12762
1.46218e+06	1.12797
1.47062e+06	1.12831
1.47911e+06	1.12866
1.48765e+06	1.12901
1.49624e+06	1.12936
1.50487e+06	1.1297
1.51356e+06	1.13005
1.5223e+06	1.13039
1.53109e+06	1.13074
1.53993e+06	1.13108
1.54882e+06	1.13143
1.55776e+06	1.13178
1.56675e+06	1.13212
1.5758e+06	1.13246
1.58489e+06	1.13281
1.59404e+06	1.13315
1.60325e+06	1.1335
1.6125e+06	1.13384
1.62181e+06	1.13418
1.63117e+06	1.13453
1.64059e+06	1.13487
1.65006e+06	1.13521
1.65959e+06	1.13556
1.66917e+06	1.1359
1.6788e+06	1.13624
1.6885e+06	1.13658
1.69824e+06	1.13692
1.70805e+06	1.13727
1.71791e+06	1.13761
1.72783e+06	1.13795
1.7378e+06	1.13829
1.74783e+06	1.13863
1.75792e+06	1.13897
1.76807e+06	1.13931
1.77828e+06	1.13965
1.78855e+06	1.13999
1.79887e+06	1.14033
1.80926e+06	1.14067
1.8197e+06	1.14101
1.83021e+06	1.14135
1.84077e+06	1.14169
1.8514e+06	1.14203
1.86209e+06	1.14236
1.87284e+06	1.1427
1.88365e+06	1.14304
1.89452e+06	1.14338
1.90546e+06	1.14372
1.91646e+06	1.14405
1.92752e+06	1.14439
1.93865e+06	1.14473
1.94984e+06	1.14506
1.9611e+06	1.1454
1.97242e+06	1.14574
1.98381e+06	1.14607
1.99526e+06	1.14641
2.00678e+06	1.14674
2.01837e+06	1.14708
2.03002e+06	1.14741
2.04174e+06	1.14775
2.05353e+06	1.14808
2.06538e+06	1.14842
2.0773e+06	1.14875
2.0893e+06	1.14908
2.10136e+06	1.14942
2.11349e+06	1.14975
2.12569e+06	1.15008
2.13796e+06	1.15042
2.1503e+06	1.15075
2.16272e+06	1.15108
2.1752e+06	1.15141
2.18776e+06	1.15175
2.20039e+06	1.15208
2.21309e+06	1.15241
2.22587e+06	1.15274
2.23872e+06	1.15307
2.25165e+06	1.1534
2.26464e+06	1.15373
2.27772e+06	1.15406
2.29087e+06	1.15439
2.30409e+06	1.15472
2.31739e+06	1.15505
2.33077e+06	1.15538
2.34423e+06	1.15571
2.35776e+06	1.15604
2.37137e+06	1.15637
2.38506e+06	1.1567
2.39883e+06	1.15703
2.41268e+06	1.15736
2.42661e+06	1.15768
2.44062e+06	1.15801
2.45471e+06	1.15834
2.46888e+06	1.15867
2.48313e+06	1.15899
2.49747e+06	1.15932
2.51189e+06	1.15965
2.52639e+06	1.15997
2.54097e+06	1.1603
2.55564e+06	1.16062
2.5704e+06	1.16095
2.58523e+06	1.16128
2.60016e+06	1.1616
2.61517e+06	1.16193
2.63027e+06	1.16225
2.64545e+06	1.16257
2.66073e+06	1.1629
2.67609e+06	1.16322
2.69153e+06	1.16355
2.70707e+06	1.16387
2.7227e+06	1.16419
2.73842e+06	1.16452
2.75423e+06	1.16484
2.77013e+06	1.16516
2.78612e+06	1.16548
2.80221e+06	1.16581
2.81838e+06	1.16613
2.83465e+06	1.16645
2.85102e+06	1.16677
2.86748e+06	1.16709
2.88403e+06	1.16741
2.90068e+06	1.16773
2.91743e+06	1.16805
2.93427e+06	1.16837
2.95121e+06	1.16869
2.96825e+06	1.16901
2.98538e+06	1.16933
3.00262e+06	1.16965
3.01995e+06	1.16997
3.03739e+06	1.17029
3.05492e+06	1.17061
3.07256e+06	1.17092
3.0903e+06	1.17124
3.10814e+06	1.17156
3.12608e+06	1.17188
3.14413e+06	1.17219
3.16228e+06	1.17251
3.18053e+06	1.17283
3.1989e+06	1.17314
3.21736e+06	1.17346
3.23594e+06	1.17378
3.25462e+06	1.17409
3.27341e+06	1.17441
3.2923e+06	1.17472
3.31131e+06	1.17504
3.33043e+06	1.17535
3.34965e+06	1.17567
3.36899e+06	1.17598
3.38844e+06	1.17629
3.408e+06	1.17661
3.42768e+06	1.17692
3.44747e+06	1.17723
3.46737e+06	1.17755
3.48739e+06	1.17786
3.50752e+06	1.17817
3.52777e+06	1.17848
3.54813e+06	1.1788
3.56862e+06	1.17911
3.58922e+06	1.17942
3.60994e+06	1.17973
3.63078e+06	1.18004
3.65174e+06	1.18035
3.67282e+06	1.18066
3.69403e+06	1.18097
3.71535e+06	1.18128
3.7368e+06	1.18159
3.75837e+06	1.1819
3.78007e+06	1.18221
3.80189e+06	1.18252
3.82384e+06	1.18283
3.84592e+06	1.18314
3.86812e+06	1.18344
3.89045e+06	1.18375
3.91291e+06	1.18406
3.9355e+06	1.18437
3.95822e+06	1.18467
3.98107e+06	1.18498
4.00405e+06	1.18529
4.02717e+06	1.18559
4.05042e+06	1.1859
4.0738e+06	1.18621
4.09732e+06	1.18651
4.12098e+06	1.18682
4.14477e+06	1.18712
4.16869e+06	1.18743
4.19276e+06	1.18773
4.21697e+06	1.18804
4.24131e+06	1.18834
4.2658e+06	1.18864
4.29042e+06	1.18895
4.31519e+06	1.18925
4.3401e+06	1.18955
4.36516e+06	1.18986
4.39036e+06	1.19016
4.4157e+06	1.19046
4.4412e+06	1.19076
4.46684e+06	1.19106
4.49262e+06	1.19137
4.51856e+06	1.19167
4.54465e+06	1.19197
4.57088e+06	1.19227
4.59727e+06	1.19257
4.62381e+06	1.19287
4.6505e+06	1.19317
4.67735e+06	1.19347
4.70435e+06	1.19377
4.73151e+06	1.19407
4.75883e+06	1.19437
4.7863e+06	1.19466
4.81393e+06	1.19496
4.84172e+06	1.19526
4.86968e+06	1.19556
4.89779e+06	1.19586
4.92606e+06	1.19615
4.9545e+06	1.19645
4.9831e+06	1.19675
5.01187e+06	1.19704
5.04081e+06	1.19734
5.06991e+06	1.19764
5.09918e+06	1.19793
5.12861e+06	1.19823
5.15822e+06	1.19852
5.188e+06	1.19882
5.21795e+06	1.19911
5.24807e+06	1.19941
5.27837e+06	1.1997
5.30884e+06	1.19999
5.33949e+06	1.20029
5.37032e+06	1.20058
5.40132e+06	1.20087
5.4325e+06	1.20117
5.46387e+06	1.20146
5.49541e+06	1.20175
5.52713e+06	1.20204
5.55904e+06	1.20234
5.59114e+06	1.20263
5.62341e+06	1.20292
5.65588e+06	1.20321
5.68853e+06	1.2035
5.72137e+06	1.20379
5.7544e+06	1.20408
5.78762e+06	1.20437
5.82103e+06	1.20466
5.85464e+06	1.20495
5.88844e+06	1.20524
5.92243e+06	1.20553
5.95662e+06	1.20582
5.99101e+06	1.20611
6.0256e+06	1.2064
6.06038e+06	1.20668
6.09537e+06	1.20697
6.13056e+06	1.20726
6.16595e+06	1.20755
6.20155e+06	1.20783
6.23735e+06	1.20812
6.27336e+06	1.20841
6.30957e+06	1.20869
6.346e+06	1.20898
6.38263e+06	1.20926
6.41948e+06	1.20955
6.45654e+06	1.20983
6.49382e+06	1.21012
6.53131e+06	1.2104
6.56901e+06	1.21069
6.60693e+06	1.21097
6.64508e+06	1.21126
6.68344e+06	1.21154
6.72202e+06	1.21182
6.76083e+06	1.21211
6.79986e+06	1.21239
6.83912e+06	1.21267
6.8786e+06	1.21295
6.91831e+06	1.21324
6.95825e+06	1.21352
6.99842e+06	1.2138
7.03882e+06	1.21408
7.07946e+06	1.21436
7.12033e+06	1.21464
7.16143e+06	1.21492
7.20278e+06	1.2152
7.24436e+06	1.21548
7.28618e+06	1.21576
7.32825e+06	1.21604
7.37055e+06	1.21632
7.4131e+06	1.2166
7.4559e+06	1.21688
7.49894e+06	1.21716
7.54223e+06	1.21744
7.58578e+06	1.21771
7.62957e+06	1.21799
7.67361e+06	1.21827
7.71792e+06	1.21855
7.76247e+06	1.21882
7.80728e+06	1.2191
7.85236e+06	1.21938
7.89769e+06	1.21965
7.94328e+06	1.21965
7.98914e+06	1.2196
8.03526e+06	1.21956
8.08165e+06	1.21951
8.12831e+06	1.21946
8.17523e+06	1.21942
8.22243e+06	1.21937
8.2699e+06	1.21933
8.31764e+06	1.21928
8.36566e+06	1.21924
8.41395e+06	1.21919
8.46253e+06	1.21915
8.51138e+06	1.21911
8.56052e+06	1.21907
8.60994e+06	1.21903
8.65964e+06	1.21898
8.70964e+06	1.21894
8.75992e+06	1.2189
8.81049e+06	1.21886
8.86135e+06	1.21883
8.91251e+06	1.21879
8.96396e+06	1.21875
9.01571e+06	1.21871
9.06776e+06	1.21867
9.12011e+06	1.21864
9.17276e+06	1.2186
9.22571e+06	1.21856
9.27897e+06	1.21853
9.33254e+06	1.21849
9.38642e+06	1.21846
9.44061e+06	1.21842
9.49511e+06	1.21839
9.54993e+06	1.21836
9.60506e+06	1.21832
9.66051e+06	1.21829
9.71628e+06	1.21826
9.77237e+06	1.21822
9.82879e+06	1.21819
9.88553e+06	1.21816
9.9426e+06	1.21813
1e+07	1.2181
