Stopping power dEdx from Ionisation for alpha Z = 2 in G4_Si, process name: ionIoni
E [MeV]	dEdx [MeV/mm]
0.001	11.0256
0.00100577	11.0631
0.00101158	11.1009
0.00101742	11.1389
0.00102329	11.1772
0.0010292	11.2157
0.00103514	11.2545
0.00104112	11.2935
0.00104713	11.3328
0.00105317	11.3724
0.00105925	11.4122
0.00106537	11.4523
0.00107152	11.4927
0.00107771	11.5333
0.00108393	11.5742
0.00109018	11.6153
0.00109648	11.6568
0.00110281	11.6985
0.00110917	11.7405
0.00111558	11.7827
0.00112202	11.8252
0.0011285	11.8681
0.00113501	11.9111
0.00114156	11.9545
0.00114815	11.9982
0.00115478	12.0421
0.00116145	12.0863
0.00116815	12.1308
0.0011749	12.1756
0.00118168	12.2207
0.0011885	12.2661
0.00119536	12.3118
0.00120226	12.3578
0.00120921	12.404
0.00121619	12.4506
0.00122321	12.4974
0.00123027	12.5446
0.00123737	12.592
0.00124451	12.6398
0.0012517	12.6879
0.00125893	12.7362
0.00126619	12.7849
0.0012735	12.8339
0.00128086	12.8831
0.00128825	12.9327
0.00129569	12.9826
0.00130317	13.0329
0.00131069	13.0834
0.00131826	13.1342
0.00132587	13.1854
0.00133352	13.2369
0.00134122	13.2887
0.00134896	13.3408
0.00135675	13.3932
0.00136458	13.446
0.00137246	13.499
0.00138038	13.5524
0.00138835	13.6062
0.00139637	13.6602
0.00140443	13.7146
0.00141254	13.7693
0.00142069	13.8243
0.00142889	13.8797
0.00143714	13.9354
0.00144544	13.9914
0.00145378	14.0477
0.00146218	14.1044
0.00147062	14.1614
0.00147911	14.2188
0.00148765	14.2764
0.00149624	14.3345
0.00150487	14.3892
0.00151356	14.4414
0.0015223	14.4939
0.00153109	14.5467
0.00153993	14.5998
0.00154882	14.6532
0.00155776	14.7069
0.00156675	14.7609
0.0015758	14.8152
0.00158489	14.8699
0.00159404	14.9248
0.00160325	14.98
0.0016125	15.0355
0.00162181	15.0913
0.00163117	15.1474
0.00164059	15.2038
0.00165006	15.2605
0.00165959	15.3175
0.00166917	15.3749
0.0016788	15.4325
0.0016885	15.4904
0.00169824	15.5486
0.00170805	15.6071
0.00171791	15.6659
0.00172783	15.7249
0.0017378	15.7843
0.00174783	15.844
0.00175792	15.904
0.00176807	15.9642
0.00177828	16.0248
0.00178855	16.0856
0.00179887	16.1467
0.00180926	16.2082
0.0018197	16.2699
0.00183021	16.3318
0.00184077	16.3941
0.0018514	16.4566
0.00186209	16.5194
0.00187284	16.5825
0.00188365	16.6459
0.00189452	16.7095
0.00190546	16.7734
0.00191646	16.8376
0.00192752	16.9021
0.00193865	16.9668
0.00194984	17.0317
0.0019611	17.0969
0.00197242	17.1624
0.00198381	17.2281
0.00199526	17.2941
0.00200678	17.3597
0.00201837	17.425
0.00203002	17.4907
0.00204174	17.5565
0.00205353	17.6226
0.00206538	17.6889
0.0020773	17.7555
0.0020893	17.8223
0.00210136	17.8894
0.00211349	17.9567
0.00212569	18.0242
0.00213796	18.092
0.0021503	18.1601
0.00216272	18.2284
0.0021752	18.2969
0.00218776	18.3657
0.00220039	18.4348
0.00221309	18.5041
0.00222587	18.5736
0.00223872	18.6434
0.00225165	18.7135
0.00226464	18.7838
0.00227772	18.8544
0.00229087	18.9253
0.00230409	18.9964
0.00231739	19.0677
0.00233077	19.1394
0.00234423	19.2113
0.00235776	19.2834
0.00237137	19.3559
0.00238506	19.4286
0.00239883	19.5016
0.00241268	19.5748
0.00242661	19.6484
0.00244062	19.7222
0.00245471	19.7963
0.00246888	19.8707
0.00248313	19.9453
0.00249747	20.0203
0.00251189	20.0954
0.00252639	20.1708
0.00254097	20.2465
0.00255564	20.3225
0.0025704	20.3988
0.00258523	20.4754
0.00260016	20.5523
0.00261517	20.6295
0.00263027	20.7069
0.00264545	20.7847
0.00266073	20.8627
0.00267609	20.9411
0.00269153	21.0197
0.00270707	21.0987
0.0027227	21.1779
0.00273842	21.2575
0.00275423	21.3373
0.00277013	21.4175
0.00278612	21.4979
0.00280221	21.5787
0.00281838	21.6598
0.00283465	21.7411
0.00285102	21.8228
0.00286748	21.9048
0.00288403	21.9871
0.00290068	22.0697
0.00291743	22.1527
0.00293427	22.2359
0.00295121	22.3195
0.00296825	22.4033
0.00298538	22.4875
0.00300262	22.572
0.00301995	22.6569
0.00303739	22.7421
0.00305492	22.8276
0.00307256	22.9134
0.0030903	22.9995
0.00310814	23.086
0.00312608	23.1728
0.00314413	23.2599
0.00316228	23.3474
0.00318053	23.4352
0.0031989	23.5233
0.00321736	23.6117
0.00323594	23.7005
0.00325462	23.7896
0.00327341	23.8791
0.0032923	23.9689
0.00331131	24.059
0.00333043	24.1495
0.00334965	24.2403
0.00336899	24.3314
0.00338844	24.4229
0.003408	24.5148
0.00342768	24.6069
0.00344747	24.6995
0.00346737	24.7923
0.00348739	24.8856
0.00350752	24.9792
0.00352777	25.0731
0.00354813	25.1674
0.00356862	25.262
0.00358922	25.357
0.00360994	25.4524
0.00363078	25.5481
0.00365174	25.6442
0.00367282	25.7407
0.00369403	25.8375
0.00371535	25.9347
0.0037368	26.0322
0.00375837	26.1302
0.00378007	26.2285
0.00380189	26.3271
0.00382384	26.4262
0.00384592	26.5257
0.00386812	26.6255
0.00389045	26.7257
0.00391291	26.8263
0.0039355	26.9273
0.00395822	27.0286
0.00398107	27.1304
0.00400405	27.226
0.00402717	27.2997
0.00405042	27.4026
0.0040738	27.5058
0.00409732	27.6095
0.00412098	27.7136
0.00414477	27.8181
0.00416869	27.923
0.00419276	28.0283
0.00421697	28.1339
0.00424131	28.24
0.0042658	28.3465
0.00429042	28.4534
0.00431519	28.5607
0.0043401	28.6684
0.00436516	28.7765
0.00439036	28.885
0.0044157	28.9939
0.0044412	29.1032
0.00446684	29.2129
0.00449262	29.323
0.00451856	29.4335
0.00454465	29.5445
0.00457088	29.6558
0.00459727	29.7675
0.00462381	29.8797
0.0046505	29.9922
0.00467735	30.1052
0.00470435	30.2186
0.00473151	30.3323
0.00475883	30.4465
0.0047863	30.5611
0.00481393	30.6761
0.00484172	30.7915
0.00486968	30.9073
0.00489779	31.0235
0.00492606	31.1402
0.0049545	31.2572
0.0049831	31.3747
0.00501187	31.4925
0.00504081	31.6108
0.00506991	31.7296
0.00509918	31.8487
0.00512861	31.9683
0.00515822	32.0882
0.005188	32.2086
0.00521795	32.3295
0.00524807	32.4508
0.00527837	32.5725
0.00530884	32.6946
0.00533949	32.8172
0.00537032	32.9403
0.00540132	33.0638
0.0054325	33.1877
0.00546387	33.3121
0.00549541	33.437
0.00552713	33.5624
0.00555904	33.6882
0.00559114	33.8145
0.00562341	33.9413
0.00565588	34.0686
0.00568853	34.1964
0.00572137	34.3247
0.0057544	34.4535
0.00578762	34.5829
0.00582103	34.7127
0.00585464	34.8431
0.00588844	34.974
0.00592243	35.1054
0.00595662	35.2374
0.00599101	35.37
0.0060256	35.5031
0.00606038	35.6368
0.00609537	35.771
0.00613056	35.9058
0.00616595	36.0411
0.00620155	36.177
0.00623735	36.3134
0.00627336	36.4504
0.00630957	36.5879
0.006346	36.726
0.00638263	36.8646
0.00641948	37.0037
0.00645654	37.1433
0.00649382	37.2834
0.00653131	37.4241
0.00656901	37.5652
0.00660693	37.7069
0.00664508	37.849
0.00668344	37.9917
0.00672202	38.1348
0.00676083	38.2784
0.00679986	38.4224
0.00683912	38.567
0.0068786	38.7119
0.00691831	38.8574
0.00695825	39.0032
0.00699842	39.1495
0.00703882	39.2963
0.00707946	39.4435
0.00712033	39.5911
0.00716143	39.7391
0.00720278	39.8877
0.00724436	40.0367
0.00728618	40.1862
0.00732825	40.3363
0.00737055	40.4868
0.0074131	40.6379
0.0074559	40.7896
0.00749894	40.9418
0.00754223	41.0946
0.00758578	41.248
0.00762957	41.402
0.00767361	41.5567
0.00771792	41.712
0.00776247	41.8679
0.00780728	42.0246
0.00785236	42.182
0.00789769	42.3401
0.00794328	42.4989
0.00798914	42.6586
0.00803526	42.819
0.00808165	42.9802
0.00812831	43.1422
0.00817523	43.3049
0.00822243	43.4684
0.0082699	43.6327
0.00831764	43.7976
0.00836566	43.9633
0.00841395	44.1297
0.00846253	44.2967
0.00851138	44.4644
0.00856052	44.6328
0.00860994	44.8017
0.00865964	44.9713
0.00870964	45.1415
0.00875992	45.3122
0.00881049	45.4834
0.00886135	45.6552
0.00891251	45.8275
0.00896396	46.0003
0.00901571	46.1735
0.00906776	46.3471
0.00912011	46.5212
0.00917276	46.6958
0.00922571	46.8708
0.00927897	47.0464
0.00933254	47.2224
0.00938642	47.399
0.00944061	47.5762
0.00949511	47.7539
0.00954993	47.9322
0.00960506	48.1112
0.00966051	48.2907
0.00971628	48.4709
0.00977237	48.6518
0.00982879	48.8334
0.00988553	49.0157
0.0099426	49.1988
0.01	49.3826
0.0100577	49.5673
0.0101158	49.7528
0.0101742	49.939
0.0102329	50.1261
0.010292	50.314
0.0103514	50.5027
0.0104112	50.6921
0.0104713	50.8824
0.0105317	51.0735
0.0105925	51.2653
0.0106537	51.458
0.0107152	51.6514
0.0107771	51.8457
0.0108393	52.0407
0.0109018	52.2365
0.0109648	52.4331
0.0110281	52.6305
0.0110917	52.8287
0.0111558	53.0277
0.0112202	53.2275
0.011285	53.428
0.0113501	53.6293
0.0114156	53.8314
0.0114815	54.0343
0.0115478	54.2379
0.0116145	54.4423
0.0116815	54.6475
0.011749	54.8534
0.0118168	55.0601
0.011885	55.2676
0.0119536	55.4758
0.0120226	55.6848
0.0120921	55.8945
0.0121619	56.105
0.0122321	56.3162
0.0123027	56.5281
0.0123737	56.7408
0.0124451	56.9542
0.012517	57.1683
0.0125893	57.3829
0.0126619	57.5983
0.012735	57.8144
0.0128086	58.0313
0.0128825	58.2488
0.0129569	58.4672
0.0130317	58.6863
0.0131069	58.9061
0.0131826	59.1267
0.0132587	59.3481
0.0133352	59.5703
0.0134122	59.7932
0.0134896	60.017
0.0135675	60.2415
0.0136458	60.4668
0.0137246	60.693
0.0138038	60.92
0.0138835	61.1478
0.0139637	61.3765
0.0140443	61.606
0.0141254	61.8364
0.0142069	62.0676
0.0142889	62.2997
0.0143714	62.5327
0.0144544	62.7666
0.0145378	63.0014
0.0146218	63.2371
0.0147062	63.4738
0.0147911	63.7114
0.0148765	63.9499
0.0149624	64.1894
0.0150487	64.4299
0.0151356	64.6715
0.015223	64.914
0.0153109	65.1575
0.0153993	65.402
0.0154882	65.6475
0.0155776	65.8939
0.0156675	66.1413
0.015758	66.3896
0.0158489	66.6389
0.0159404	66.8891
0.0160325	67.1403
0.016125	67.3924
0.0162181	67.6455
0.0163117	67.8995
0.0164059	68.1544
0.0165006	68.4102
0.0165959	68.667
0.0166917	68.9246
0.016788	69.1832
0.016885	69.4426
0.0169824	69.703
0.0170805	69.9642
0.0171791	70.2263
0.0172783	70.4893
0.017378	70.7531
0.0174783	71.0178
0.0175792	71.2834
0.0176807	71.5497
0.0177828	71.817
0.0178855	72.0851
0.0179887	72.3541
0.0180926	72.624
0.018197	72.8948
0.0183021	73.1666
0.0184077	73.4393
0.018514	73.7129
0.0186209	73.9875
0.0187284	74.2631
0.0188365	74.5397
0.0189452	74.8173
0.0190546	75.0959
0.0191646	75.3756
0.0192752	75.6563
0.0193865	75.9381
0.0194984	76.221
0.019611	76.5051
0.0197242	76.7903
0.0198381	77.0766
0.0199526	77.3641
0.0200678	77.6529
0.0201837	77.9428
0.0203002	78.234
0.0204174	78.5263
0.0205353	78.8199
0.0206538	79.1146
0.020773	79.4106
0.020893	79.7077
0.0210136	80.006
0.0211349	80.3054
0.0212569	80.6061
0.0213796	80.9078
0.021503	81.2107
0.0216272	81.5148
0.021752	81.82
0.0218776	82.1263
0.0220039	82.4338
0.0221309	82.7423
0.0222587	83.0519
0.0223872	83.3626
0.0225165	83.6744
0.0226464	83.9873
0.0227772	84.3012
0.0229087	84.6162
0.0230409	84.9323
0.0231739	85.2495
0.0233077	85.5677
0.0234423	85.887
0.0235776	86.2074
0.0237137	86.5289
0.0238506	86.8515
0.0239883	87.1752
0.0241268	87.5
0.0242661	87.8258
0.0244062	88.1528
0.0245471	88.4809
0.0246888	88.8101
0.0248313	89.1405
0.0249747	89.4719
0.0251189	89.8045
0.0252639	90.1382
0.0254097	90.473
0.0255564	90.809
0.025704	91.1462
0.0258523	91.4845
0.0260016	91.824
0.0261517	92.1647
0.0263027	92.5067
0.0264545	92.8498
0.0266073	93.1942
0.0267609	93.5398
0.0269153	93.8867
0.0270707	94.2348
0.027227	94.5843
0.0273842	94.935
0.0275423	95.2871
0.0277013	95.6404
0.0278612	95.9952
0.0280221	96.3512
0.0281838	96.7085
0.0283465	97.0672
0.0285102	97.4272
0.0286748	97.7885
0.0288403	98.1511
0.0290068	98.515
0.0291743	98.8802
0.0293427	99.2467
0.0295121	99.6145
0.0296825	99.9835
0.0298538	100.354
0.0300262	100.726
0.0301995	101.099
0.0303739	101.473
0.0305492	101.848
0.0307256	102.225
0.030903	102.603
0.0310814	102.983
0.0312608	103.363
0.0314413	103.745
0.0316228	104.129
0.0318053	104.513
0.031989	104.899
0.0321736	105.287
0.0323594	105.675
0.0325462	106.065
0.0327341	106.457
0.032923	106.849
0.0331131	107.244
0.0333043	107.639
0.0334965	108.036
0.0336899	108.434
0.0338844	108.834
0.03408	109.235
0.0342768	109.637
0.0344747	110.041
0.0346737	110.446
0.0348739	110.853
0.0350752	111.261
0.0352777	111.67
0.0354813	112.081
0.0356862	112.493
0.0358922	112.907
0.0360994	113.322
0.0363078	113.739
0.0365174	114.157
0.0367282	114.577
0.0369403	114.997
0.0371535	115.42
0.037368	115.844
0.0375837	116.269
0.0378007	116.696
0.0380189	117.124
0.0382384	117.554
0.0384592	117.985
0.0386812	118.418
0.0389045	118.852
0.0391291	119.287
0.039355	119.724
0.0395822	120.163
0.0398107	120.602
0.0400405	121.044
0.0402717	121.487
0.0405042	121.931
0.040738	122.377
0.0409732	122.824
0.0412098	123.273
0.0414477	123.723
0.0416869	124.174
0.0419276	124.627
0.0421697	125.082
0.0424131	125.538
0.042658	125.995
0.0429042	126.454
0.0431519	126.914
0.043401	127.376
0.0436516	127.839
0.0439036	128.304
0.044157	128.77
0.044412	129.237
0.0446684	129.706
0.0449262	130.176
0.0451856	130.648
0.0454465	131.121
0.0457088	131.596
0.0459727	132.072
0.0462381	132.549
0.046505	133.028
0.0467735	133.508
0.0470435	133.99
0.0473151	134.474
0.0475883	134.959
0.047863	135.445
0.0481393	135.934
0.0484172	136.423
0.0486968	136.914
0.0489779	137.407
0.0492606	137.902
0.049545	138.398
0.049831	138.895
0.0501187	139.394
0.0504081	139.895
0.0506991	140.398
0.0509918	140.902
0.0512861	141.408
0.0515822	141.915
0.05188	142.424
0.0521795	142.935
0.0524807	143.447
0.0527837	143.96
0.0530884	144.475
0.0533949	144.992
0.0537032	145.51
0.0540132	146.029
0.054325	146.549
0.0546387	147.071
0.0549541	147.595
0.0552713	148.119
0.0555904	148.645
0.0559114	149.172
0.0562341	149.701
0.0565588	150.231
0.0568853	150.762
0.0572137	151.295
0.057544	151.829
0.0578762	152.365
0.0582103	152.902
0.0585464	153.441
0.0588844	153.982
0.0592243	154.524
0.0595662	155.068
0.0599101	155.614
0.060256	156.161
0.0606038	156.711
0.0609537	157.262
0.0613056	157.814
0.0616595	158.369
0.0620155	158.925
0.0623735	159.482
0.0627336	160.041
0.0630957	160.601
0.06346	161.163
0.0638263	161.726
0.0641948	162.29
0.0645654	162.856
0.0649382	163.422
0.0653131	163.99
0.0656901	164.558
0.0660693	165.128
0.0664508	165.699
0.0668344	166.271
0.0672202	166.845
0.0676083	167.42
0.0679986	167.996
0.0683912	168.574
0.068786	169.154
0.0691831	169.735
0.0695825	170.318
0.0699842	170.903
0.0703882	171.489
0.0707946	172.078
0.0712033	172.668
0.0716143	173.26
0.0720278	173.853
0.0724436	174.448
0.0728618	175.044
0.0732825	175.642
0.0737055	176.24
0.074131	176.84
0.074559	177.44
0.0749894	178.041
0.0754223	178.643
0.0758578	179.245
0.0762957	179.849
0.0767361	180.453
0.0771792	181.058
0.0776247	181.664
0.0780728	182.271
0.0785236	182.88
0.0789769	183.49
0.0794328	184.102
0.0798914	184.715
0.0803526	185.33
0.0808165	185.946
0.0812831	186.564
0.0817523	187.184
0.0822243	187.805
0.082699	188.427
0.0831764	189.05
0.0836566	189.675
0.0841395	190.3
0.0846253	190.926
0.0851138	191.553
0.0856052	192.18
0.0860994	192.808
0.0865964	193.437
0.0870964	194.067
0.0875992	194.697
0.0881049	195.329
0.0886135	195.962
0.0891251	196.596
0.0896396	197.231
0.0901571	197.868
0.0906776	198.507
0.0912011	199.147
0.0917276	199.788
0.0922571	200.43
0.0927897	201.073
0.0933254	201.717
0.0938642	202.362
0.0944061	203.007
0.0949511	203.652
0.0954993	204.297
0.0960506	204.943
0.0966051	205.588
0.0971628	206.233
0.0977237	206.879
0.0982879	207.525
0.0988553	208.171
0.099426	208.818
0.1	209.465
0.100577	210.112
0.101158	210.76
0.101742	211.409
0.102329	212.058
0.10292	212.707
0.103514	213.357
0.104112	214.007
0.104713	214.658
0.105317	215.309
0.105925	215.96
0.106537	216.611
0.107152	217.263
0.107771	217.916
0.108393	218.568
0.109018	219.221
0.109648	219.875
0.110281	220.528
0.110917	221.182
0.111558	221.837
0.112202	222.491
0.11285	223.146
0.113501	223.802
0.114156	224.457
0.114815	225.113
0.115478	225.77
0.116145	226.426
0.116815	227.083
0.11749	227.74
0.118168	228.398
0.11885	229.056
0.119536	229.714
0.120226	230.373
0.120921	231.032
0.121619	231.691
0.122321	232.351
0.123027	233.011
0.123737	233.671
0.124451	234.332
0.12517	234.993
0.125893	235.651
0.126619	236.31
0.12735	236.968
0.128086	237.627
0.128825	238.287
0.129569	238.946
0.130317	239.606
0.131069	240.265
0.131826	240.925
0.132587	241.584
0.133352	242.243
0.134122	242.902
0.134896	243.561
0.135675	244.22
0.136458	244.878
0.137246	245.535
0.138038	246.192
0.138835	246.849
0.139637	247.504
0.140443	248.16
0.141254	248.814
0.142069	249.467
0.142889	250.119
0.143714	250.771
0.144544	251.421
0.145378	252.07
0.146218	252.718
0.147062	253.364
0.147911	254.009
0.148765	254.652
0.149624	255.294
0.150487	255.934
0.151356	256.573
0.15223	257.211
0.153109	257.847
0.153993	258.481
0.154882	259.113
0.155776	259.743
0.156675	260.372
0.15758	260.999
0.158489	261.624
0.159404	262.247
0.160325	262.868
0.16125	263.488
0.162181	264.106
0.163117	264.722
0.164059	265.336
0.165006	265.949
0.165959	266.56
0.166917	267.169
0.16788	267.777
0.16885	268.383
0.169824	268.987
0.170805	269.59
0.171791	270.192
0.172783	270.791
0.17378	271.389
0.174783	271.986
0.175792	272.581
0.176807	273.175
0.177828	273.768
0.178855	274.359
0.179887	274.948
0.180926	275.535
0.18197	276.12
0.183021	276.704
0.184077	277.286
0.18514	277.865
0.186209	278.442
0.187284	279.018
0.188365	279.59
0.189452	280.161
0.190546	280.729
0.191646	281.294
0.192752	281.856
0.193865	282.416
0.194984	282.973
0.19611	283.527
0.197242	284.078
0.198381	284.626
0.199526	285.17
0.200678	285.712
0.201837	286.249
0.203002	286.784
0.204174	287.315
0.205353	287.843
0.206538	288.368
0.20773	288.89
0.20893	289.409
0.210136	289.926
0.211349	290.439
0.212569	290.95
0.213796	291.458
0.21503	291.964
0.216272	292.468
0.21752	292.97
0.218776	293.469
0.220039	293.966
0.221309	294.462
0.222587	294.956
0.223872	295.449
0.225165	295.94
0.226464	296.43
0.227772	296.918
0.229087	297.405
0.230409	297.891
0.231739	298.374
0.233077	298.856
0.234423	299.336
0.235776	299.813
0.237137	300.288
0.238506	300.76
0.239883	301.229
0.241268	301.695
0.242661	302.159
0.244062	302.618
0.245471	303.075
0.246888	303.527
0.248313	303.975
0.249747	304.42
0.251189	304.86
0.252639	305.295
0.254097	305.726
0.255564	306.153
0.25704	306.576
0.258523	306.994
0.260016	307.409
0.261517	307.819
0.263027	308.226
0.264545	308.629
0.266073	309.028
0.267609	309.424
0.269153	309.817
0.270707	310.206
0.27227	310.592
0.273842	310.975
0.275423	311.355
0.277013	311.732
0.278612	312.107
0.280221	312.478
0.281838	312.847
0.283465	313.212
0.285102	313.574
0.286748	313.932
0.288403	314.287
0.290068	314.638
0.291743	314.985
0.293427	315.329
0.295121	315.668
0.296825	316.004
0.298538	316.335
0.300262	316.662
0.301995	316.984
0.303739	317.302
0.305492	317.616
0.307256	317.925
0.30903	318.23
0.310814	318.531
0.312608	318.827
0.314413	319.118
0.316228	319.406
0.318053	319.689
0.31989	319.968
0.321736	320.243
0.323594	320.514
0.325462	320.781
0.327341	321.044
0.32923	321.303
0.331131	321.558
0.333043	321.809
0.334965	322.057
0.336899	322.301
0.338844	322.542
0.3408	322.779
0.342768	323.013
0.344747	323.244
0.346737	323.472
0.348739	323.696
0.350752	323.917
0.352777	324.134
0.354813	324.348
0.356862	324.56
0.358922	324.768
0.360994	324.973
0.363078	325.175
0.365174	325.373
0.367282	325.569
0.369403	325.761
0.371535	325.949
0.37368	326.134
0.375837	326.316
0.378007	326.494
0.380189	326.668
0.382384	326.838
0.384592	327.005
0.386812	327.167
0.389045	327.326
0.391291	327.48
0.39355	327.63
0.395822	327.776
0.398107	327.918
0.400405	328.055
0.402717	328.188
0.405042	328.316
0.40738	328.44
0.409732	328.56
0.412098	328.675
0.414477	328.786
0.416869	328.892
0.419276	328.994
0.421697	329.091
0.424131	329.184
0.42658	329.273
0.429042	329.358
0.431519	329.438
0.43401	329.514
0.436516	329.585
0.439036	329.653
0.44157	329.716
0.44412	329.776
0.446684	329.831
0.449262	329.883
0.451856	329.93
0.454465	329.974
0.457088	330.014
0.459727	330.05
0.462381	330.082
0.46505	330.11
0.467735	330.134
0.470435	330.154
0.473151	330.171
0.475883	330.183
0.47863	330.192
0.481393	330.196
0.484172	330.197
0.486968	330.194
0.489779	330.187
0.492606	330.177
0.49545	330.162
0.49831	330.144
0.501187	330.122
0.504081	330.096
0.506991	330.067
0.509918	330.033
0.512861	329.995
0.515822	329.954
0.5188	329.908
0.521795	329.858
0.524807	329.805
0.527837	329.746
0.530884	329.684
0.533949	329.617
0.537032	329.546
0.540132	329.47
0.54325	329.39
0.546387	329.305
0.549541	329.215
0.552713	329.121
0.555904	329.022
0.559114	328.918
0.562341	328.81
0.565588	328.698
0.568853	328.582
0.572137	328.462
0.57544	328.338
0.578762	328.21
0.582103	328.079
0.585464	327.945
0.588844	327.807
0.592243	327.667
0.595662	327.524
0.599101	327.378
0.60256	327.23
0.606038	327.08
0.609537	326.928
0.613056	326.772
0.616595	326.614
0.620155	326.453
0.623735	326.289
0.627336	326.122
0.630957	325.952
0.6346	325.778
0.638263	325.6
0.641948	325.419
0.645654	325.234
0.649382	325.044
0.653131	324.85
0.656901	324.652
0.660693	324.449
0.664508	324.243
0.668344	324.032
0.672202	323.818
0.676083	323.6
0.679986	323.379
0.683912	323.154
0.68786	322.927
0.691831	322.696
0.695825	322.463
0.699842	322.227
0.703882	321.989
0.707946	321.749
0.712033	321.506
0.716143	321.261
0.720278	321.013
0.724436	320.762
0.728618	320.509
0.732825	320.252
0.737055	319.993
0.74131	319.731
0.74559	319.466
0.749894	319.198
0.754223	318.926
0.758578	318.651
0.762957	318.373
0.767361	318.091
0.771792	317.805
0.776247	317.516
0.780728	317.222
0.785236	316.924
0.789769	316.622
0.794328	316.316
0.798914	316.005
0.803526	315.689
0.808165	315.369
0.812831	315.045
0.817523	314.717
0.822243	314.386
0.82699	314.052
0.831764	313.716
0.836566	313.378
0.841395	313.039
0.846253	312.699
0.851138	312.358
0.856052	312.018
0.860994	311.677
0.865964	311.334
0.870964	310.989
0.875992	310.642
0.881049	310.29
0.886135	309.934
0.891251	309.572
0.896396	309.205
0.901571	308.829
0.906776	308.447
0.912011	308.058
0.917276	307.663
0.922571	307.265
0.927897	306.863
0.933254	306.46
0.938642	306.056
0.944061	305.653
0.949511	305.253
0.954993	304.856
0.960506	304.462
0.966051	304.07
0.971628	303.68
0.977237	303.291
0.982879	302.902
0.988553	302.511
0.99426	302.119
1	301.723
1.00577	301.324
1.01158	300.92
1.01742	300.513
1.02329	300.102
1.0292	299.687
1.03514	299.268
1.04112	298.845
1.04713	298.419
1.05317	297.989
1.05925	297.555
1.06537	297.118
1.07152	296.677
1.07771	296.233
1.08393	295.785
1.09018	295.334
1.09648	294.879
1.10281	294.421
1.10917	293.96
1.11558	293.496
1.12202	293.028
1.1285	292.558
1.13501	292.084
1.14156	291.608
1.14815	291.129
1.15478	290.647
1.16145	290.162
1.16815	289.675
1.1749	289.186
1.18168	288.694
1.1885	288.199
1.19536	287.703
1.20226	287.204
1.20921	286.704
1.21619	286.202
1.22321	285.697
1.23027	285.192
1.23737	284.685
1.24451	284.176
1.2517	283.666
1.25893	283.154
1.26619	282.641
1.2735	282.127
1.28086	281.612
1.28825	281.096
1.29569	280.578
1.30317	280.06
1.31069	279.54
1.31826	279.019
1.32587	278.497
1.33352	277.974
1.34122	277.45
1.34896	276.924
1.35675	276.397
1.36458	275.87
1.37246	275.34
1.38038	274.81
1.38835	274.279
1.39637	273.746
1.40443	273.212
1.41254	272.677
1.42069	272.14
1.42889	271.602
1.43714	271.063
1.44544	270.523
1.45378	269.981
1.46218	269.438
1.47062	268.894
1.47911	268.349
1.48765	267.802
1.49624	267.253
1.50487	266.703
1.51356	266.151
1.5223	265.598
1.53109	265.044
1.53993	264.488
1.54882	263.931
1.55776	263.372
1.56675	262.813
1.5758	262.252
1.58489	261.69
1.59404	261.127
1.60325	260.563
1.6125	259.997
1.62181	259.431
1.63117	258.864
1.64059	258.295
1.65006	257.726
1.65959	257.156
1.66917	256.585
1.6788	256.014
1.6885	255.441
1.69824	254.868
1.70805	254.294
1.71791	253.72
1.72783	253.145
1.7378	252.57
1.74783	251.994
1.75792	251.417
1.76807	250.841
1.77828	250.263
1.78855	249.686
1.79887	249.108
1.80926	248.529
1.8197	247.95
1.83021	247.37
1.84077	246.79
1.8514	246.21
1.86209	245.628
1.87284	245.047
1.88365	244.464
1.89452	243.881
1.90546	243.297
1.91646	242.713
1.92752	242.128
1.93865	241.542
1.94984	240.955
1.9611	240.368
1.97242	239.779
1.98381	239.19
1.99526	238.6
2.00678	238.009
2.01837	237.417
2.03002	236.824
2.04174	236.23
2.05353	235.635
2.06538	235.04
2.0773	234.444
2.0893	233.847
2.10136	233.25
2.11349	232.653
2.12569	232.055
2.13796	231.456
2.1503	230.858
2.16272	230.259
2.1752	229.661
2.18776	229.062
2.20039	228.463
2.21309	227.865
2.22587	227.267
2.23872	226.669
2.25165	226.072
2.26464	225.475
2.27772	224.879
2.29087	224.283
2.30409	223.688
2.31739	223.093
2.33077	222.499
2.34423	221.904
2.35776	221.31
2.37137	220.717
2.38506	220.123
2.39883	219.529
2.41268	218.936
2.42661	218.342
2.44062	217.749
2.45471	217.155
2.46888	216.561
2.48313	215.967
2.49747	215.372
2.51189	214.777
2.52639	214.181
2.54097	213.585
2.55564	212.988
2.5704	212.392
2.58523	211.794
2.60016	211.197
2.61517	210.599
2.63027	210
2.64545	209.402
2.66073	208.803
2.67609	208.204
2.69153	207.604
2.70707	207.005
2.7227	206.405
2.73842	205.805
2.75423	205.205
2.77013	204.604
2.78612	204.004
2.80221	203.403
2.81838	202.802
2.83465	202.201
2.85102	201.6
2.86748	200.999
2.88403	200.398
2.90068	199.797
2.91743	199.195
2.93427	198.594
2.95121	197.992
2.96825	197.39
2.98538	196.789
3.00262	196.187
3.01995	195.584
3.03739	194.982
3.05492	194.38
3.07256	193.777
3.0903	193.175
3.10814	192.572
3.12608	191.97
3.14413	191.367
3.16228	190.765
3.18053	190.162
3.1989	189.559
3.21736	188.956
3.23594	188.353
3.25462	187.751
3.27341	187.148
3.2923	186.545
3.31131	185.941
3.33043	185.338
3.34965	184.735
3.36899	184.132
3.38844	183.528
3.408	182.925
3.42768	182.321
3.44747	181.718
3.46737	181.114
3.48739	180.51
3.50752	179.906
3.52777	179.303
3.54813	178.7
3.56862	178.097
3.58922	177.493
3.60994	176.89
3.63078	176.286
3.65174	175.683
3.67282	175.079
3.69403	174.476
3.71535	173.872
3.7368	173.269
3.75837	172.666
3.78007	172.063
3.80189	171.46
3.82384	170.857
3.84592	170.255
3.86812	169.653
3.89045	169.051
3.91291	168.449
3.9355	167.848
3.95822	167.246
3.98107	166.646
4.00405	166.045
4.02717	165.445
4.05042	164.845
4.0738	164.246
4.09732	163.648
4.12098	163.05
4.14477	162.453
4.16869	161.856
4.19276	161.261
4.21697	160.667
4.24131	160.074
4.2658	159.482
4.29042	158.891
4.31519	158.302
4.3401	157.714
4.36516	157.128
4.39036	156.543
4.4157	155.96
4.4412	155.379
4.46684	154.8
4.49262	154.223
4.51856	153.648
4.54465	153.075
4.57088	152.504
4.59727	151.936
4.62381	151.369
4.6505	150.804
4.67735	150.242
4.70435	149.681
4.73151	149.123
4.75883	148.566
4.7863	148.011
4.81393	147.458
4.84172	146.906
4.86968	146.357
4.89779	145.808
4.92606	145.262
4.9545	144.716
4.9831	144.172
5.01187	143.63
5.04081	143.088
5.06991	142.548
5.09918	142.01
5.12861	141.475
5.15822	140.939
5.188	140.404
5.21795	139.871
5.24807	139.339
5.27837	138.809
5.30884	138.281
5.33949	137.754
5.37032	137.229
5.40132	136.705
5.4325	136.183
5.46387	135.663
5.49541	135.145
5.52713	134.629
5.55904	134.114
5.59114	133.601
5.62341	133.09
5.65588	132.581
5.68853	132.074
5.72137	131.568
5.7544	131.064
5.78762	130.561
5.82103	130.06
5.85464	129.561
5.88844	129.063
5.92243	128.567
5.95662	128.072
5.99101	127.579
6.0256	127.086
6.06038	126.596
6.09537	126.106
6.13056	125.618
6.16595	125.131
6.20155	124.646
6.23735	124.162
6.27336	123.68
6.30957	123.199
6.346	122.72
6.38263	122.242
6.41948	121.766
6.45654	121.291
6.49382	120.818
6.53131	120.346
6.56901	119.876
6.60693	119.408
6.64508	118.941
6.68344	118.476
6.72202	118.013
6.76083	117.551
6.79986	117.091
6.83912	116.633
6.8786	116.176
6.91831	115.721
6.95825	115.268
6.99842	114.816
7.03882	114.366
7.07946	113.918
7.12033	113.471
7.16143	113.026
7.20278	112.583
7.24436	112.141
7.28618	111.701
7.32825	111.262
7.37055	110.824
7.4131	110.388
7.4559	109.953
7.49894	109.52
7.54223	109.087
7.58578	108.656
7.62957	108.226
7.67361	107.797
7.71792	107.37
7.76247	106.944
7.80728	106.519
7.85236	106.095
7.89769	105.673
7.94328	105.251
7.98914	104.839
8.03526	104.426
8.08165	104.014
8.12831	103.603
8.17523	103.193
8.22243	102.785
8.2699	102.379
8.31764	101.973
8.36566	101.57
8.41395	101.167
8.46253	100.766
8.51138	100.366
8.56052	99.9678
8.60994	99.5708
8.65964	99.1751
8.70964	98.7807
8.75992	98.3877
8.81049	97.996
8.86135	97.6057
8.91251	97.2167
8.96396	96.829
9.01571	96.4426
9.06776	96.0575
9.12011	95.6738
9.17276	95.2913
9.22571	94.9102
9.27897	94.5303
9.33254	94.1517
9.38642	93.5929
9.44061	93.2204
9.49511	92.8492
9.54993	92.4792
9.60506	92.1104
9.66051	91.7429
9.71628	91.6256
9.77237	91.2527
9.82879	90.8811
9.88553	90.5108
9.9426	90.1418
10	89.774
10.0577	89.4076
10.1158	89.0423
10.1742	88.6784
10.2329	88.3156
10.292	87.9542
10.3514	87.594
10.4112	87.235
10.4713	86.8773
10.5317	86.5208
10.5925	86.1655
10.6537	85.8115
10.7152	85.4587
10.7771	85.1071
10.8393	84.7568
10.9018	84.4076
10.9648	84.0597
11.0281	83.713
11.0917	83.3675
11.1558	83.0232
11.2202	82.6801
11.285	82.2454
11.3501	81.9067
11.4156	81.5692
11.4815	81.2328
11.5478	80.8975
11.6145	80.7641
11.6815	80.4294
11.749	80.0959
11.8168	79.7635
11.885	79.4322
11.9536	79.102
12.0226	78.7729
12.0921	78.4449
12.1619	78.118
12.2321	77.7922
12.3027	77.4674
12.3737	77.1438
12.4451	76.8212
12.517	76.4982
12.5893	76.1776
12.6619	75.8582
12.735	75.5398
12.8086	75.2224
12.8825	74.9062
12.9569	74.5909
13.0317	74.2768
13.1069	73.9637
13.1826	73.6044
13.2587	73.2947
13.3352	72.9861
13.4122	72.6786
13.4896	72.372
13.5675	72.1379
13.6458	71.832
13.7246	71.5271
13.8038	71.2233
13.8835	70.9205
13.9637	70.6188
14.0443	70.3181
14.1254	70.0185
14.2069	69.7199
14.2889	69.4224
14.3714	69.1259
14.4544	68.8305
14.5378	68.6501
14.6218	68.3552
14.7062	68.0614
14.7911	67.7686
14.8765	67.4769
14.9624	67.1862
15.0487	66.8709
15.1356	66.5837
15.223	66.2975
15.3109	66.0123
15.3993	65.7282
15.4882	65.4452
15.5776	65.1632
15.6675	64.8822
15.758	64.6023
15.8489	64.3235
15.9404	64.0456
16.0325	63.7688
16.125	63.4931
16.2181	63.2184
16.3117	62.9447
16.4059	62.6721
16.5006	62.518
16.5959	62.2457
16.6917	61.9744
16.788	61.7042
16.885	61.435
16.9824	61.1669
17.0805	60.8999
17.1791	60.6338
17.2783	60.3688
17.378	60.1049
17.4783	59.842
17.5792	59.5801
17.6807	59.3193
17.7828	59.0596
17.8855	58.8009
17.9887	58.5432
18.0926	58.2866
18.197	58.0311
18.3021	57.7766
18.4077	57.5231
18.514	57.2707
18.6209	57.0193
18.7284	56.769
18.8365	56.5064
18.9452	56.259
19.0546	56.0126
19.1646	55.7673
19.2752	55.523
19.3865	55.2797
19.4984	55.2351
19.611	54.9912
19.7242	54.7484
19.8381	54.5066
19.9526	54.2658
20.0678	54.0261
20.1837	53.7874
20.3002	53.5497
20.4174	53.3131
20.5353	53.0774
20.6538	52.8428
20.773	52.6093
20.893	52.3767
21.0136	52.1451
21.1349	51.9146
21.2569	51.6851
21.3796	51.4565
21.503	51.229
21.6272	51.0024
21.752	50.7769
21.8776	50.5523
22.0039	50.3287
22.1309	50.1061
22.2587	49.8845
22.3872	49.6639
22.5165	49.4442
22.6464	49.231
22.7772	49.0136
22.9087	48.7971
23.0409	48.5816
23.1739	48.3671
23.3077	48.1535
23.4423	47.9408
23.5776	47.7291
23.7137	47.5183
23.8506	47.3085
23.9883	47.0996
24.1268	46.8916
24.2661	46.6845
24.4062	46.4783
24.5471	46.273
24.6888	46.0687
24.8313	45.8652
24.9747	45.6627
25.1189	45.461
25.2639	45.2603
25.4097	45.0604
25.5564	44.8614
25.704	44.6633
25.8523	44.4661
26.0016	44.2697
26.1517	44.0742
26.3027	43.8796
26.4545	43.6958
26.6073	43.5029
26.7609	43.3108
26.9153	43.1196
27.0707	42.9292
27.227	42.7397
27.3842	42.551
27.5423	42.3632
27.7013	42.1761
27.8612	41.9899
28.0221	41.8045
28.1838	41.62
28.3465	41.4458
28.5102	41.2631
28.6748	41.0811
28.8403	40.8999
29.0068	40.7195
29.1743	40.54
29.3427	40.4535
29.5121	40.2735
29.6825	40.0943
29.8538	39.9159
30.0262	39.7383
30.1995	39.5615
30.3739	39.3854
30.5492	39.2102
30.7256	39.0357
30.903	38.862
31.0814	38.6891
31.2608	38.5169
31.4413	38.3455
31.6228	38.1748
31.8053	38.0049
31.989	37.8358
32.1736	37.6812
32.3594	37.5135
32.5462	37.3465
32.7341	37.1802
32.923	37.0147
33.1131	36.8499
33.3043	36.6858
33.4965	36.5225
33.6899	36.3598
33.8844	36.1979
34.08	36.0367
34.2768	35.8762
34.4747	35.7164
34.6737	35.5572
34.8739	35.3988
35.0752	35.2411
35.2777	35.0841
35.4813	34.9277
35.6862	34.7721
35.8922	34.6171
36.0994	34.4628
36.3078	34.3092
36.5174	34.1562
36.7282	34.0039
36.9403	33.8523
37.1535	33.7014
37.368	33.5511
37.5837	33.4014
37.8007	33.2525
38.0189	33.1276
38.2384	32.9799
38.4592	32.8328
38.6812	32.6864
38.9045	32.5406
39.1291	32.3955
39.355	32.251
39.5822	32.1071
39.8107	31.9639
40.0405	31.8213
40.2717	31.6793
40.5042	31.5379
40.738	31.3971
40.9732	31.257
41.2098	31.1175
41.4477	30.9786
41.6869	30.8403
41.9276	30.7026
42.1697	30.5655
42.4131	30.429
42.658	30.2931
42.9042	30.1578
43.1519	30.0231
43.401	29.8889
43.6516	29.7554
43.9036	29.6225
44.157	29.4901
44.412	29.3583
44.6684	29.2271
44.9262	29.0965
45.1856	28.9665
45.4465	28.837
45.7088	28.7081
45.9727	28.5797
46.2381	28.4519
46.505	28.3247
46.7735	28.1981
47.0435	28.072
47.3151	27.9464
47.5883	27.8214
47.863	27.697
48.1393	27.5731
48.4172	27.4497
48.6968	27.3269
48.9779	27.2047
49.2606	26.9252
49.545	26.8019
49.831	26.6792
50.1187	26.557
50.4081	26.4353
50.6991	26.3142
50.9918	26.1936
51.2861	26.0736
51.5822	25.9541
51.88	25.8351
52.1795	25.7167
52.4807	25.5988
52.7837	25.4814
53.0884	25.3645
53.3949	25.2481
53.7032	25.1323
54.0132	25.017
54.325	24.9022
54.6387	24.7879
54.9541	24.6741
55.2713	24.5608
55.5904	24.448
55.9114	24.3357
56.2341	24.224
56.5588	24.1127
56.8853	24.0019
57.2137	23.9261
57.544	23.816
57.8762	23.7063
58.2103	23.5971
58.5464	23.4883
58.8844	23.3801
59.2243	23.2724
59.5662	23.1651
59.9101	23.0583
60.256	22.952
60.6038	22.8462
60.9537	22.7408
61.3056	22.6359
61.6595	22.5315
62.0155	22.4276
62.3735	22.3241
62.7336	22.2211
63.0957	22.1186
63.46	22.0165
63.8263	21.9148
64.1948	21.8137
64.5654	21.7129
64.9382	21.6127
65.3131	21.5129
65.6901	21.4135
66.0693	21.3146
66.4508	21.2161
66.8344	21.1181
67.2202	21.0205
67.6083	20.9234
67.9986	20.8266
68.3912	20.7304
68.786	20.6345
69.1831	20.5391
69.5825	20.4487
69.9842	20.3602
70.3882	20.2721
70.7946	20.1843
71.2033	20.0969
71.6143	20.0098
72.0278	19.923
72.4436	19.8365
72.8618	19.7503
73.2825	19.6645
73.7055	19.579
74.131	19.4938
74.559	19.409
74.9894	19.3245
75.4223	19.2403
75.8578	19.1564
76.2957	19.0729
76.7361	18.9897
77.1792	18.9068
77.6247	18.8242
78.0728	18.742
78.5236	18.66
78.9769	18.5784
79.4328	18.4972
79.8914	18.4162
80.3526	18.3356
80.8165	18.2552
81.2831	18.1752
81.7523	18.0955
82.2243	18.0162
82.699	17.9371
83.1764	17.8584
83.6566	17.78
84.1395	17.7019
84.6253	17.6241
85.1138	17.5466
85.6052	17.4695
86.0994	17.3926
86.5964	17.3161
87.0964	17.2399
87.5992	17.164
88.1049	17.0884
88.6135	17.0131
89.1251	16.9381
89.6396	16.8634
90.1571	16.7891
90.6776	16.715
91.2011	16.6413
91.7276	16.5678
92.2571	16.4947
92.7897	16.4218
93.3254	16.3493
93.8642	16.2771
94.4061	16.2051
94.9511	16.1335
95.4993	16.0622
96.0506	15.9911
96.6051	15.9204
97.1628	15.8704
97.7237	15.8
98.2879	15.7299
98.8553	15.6601
99.426	15.5906
100	15.5214
100.577	15.4524
101.158	15.3838
101.742	15.3155
102.329	15.2474
102.92	15.1797
103.514	15.1122
104.112	15.045
104.713	14.9781
105.317	14.9115
105.925	14.8452
106.537	14.7791
107.152	14.7134
107.771	14.6479
108.393	14.5827
109.018	14.5178
109.648	14.4532
110.281	14.3888
110.917	14.3248
111.558	14.261
112.202	14.1975
112.85	14.1342
113.501	14.0713
114.156	14.0086
114.815	13.9462
115.478	13.884
116.145	13.8222
116.815	13.7606
117.49	13.6992
118.168	13.6382
118.85	13.5774
119.536	13.5168
120.226	13.4566
120.921	13.3966
121.619	13.3368
122.321	13.2774
123.027	13.2182
123.737	13.1592
124.451	13.1005
125.17	13.0421
125.893	12.9839
126.619	12.926
127.35	12.8684
128.086	12.811
128.825	12.7539
129.569	12.697
130.317	12.6403
131.069	12.584
131.826	12.5278
132.587	12.4719
133.352	12.4163
134.122	12.3609
134.896	12.3058
135.675	12.2509
136.458	12.1963
137.246	12.1419
138.038	12.0962
138.835	12.0422
139.637	11.9884
140.443	11.9349
141.254	11.8816
142.069	11.8285
142.889	11.7757
143.714	11.7231
144.544	11.6708
145.378	11.6187
146.218	11.5668
147.062	11.5152
147.911	11.4638
148.765	11.4126
149.624	11.3616
150.487	11.3109
151.356	11.2605
152.23	11.2102
153.109	11.1602
153.993	11.1104
154.882	11.0608
155.776	11.0115
156.675	10.9624
157.58	10.9135
158.489	10.8648
159.404	10.8164
160.325	10.7682
161.25	10.7202
162.181	10.6724
163.117	10.6248
164.059	10.5775
165.006	10.5303
165.959	10.4834
166.917	10.4367
167.88	10.3903
168.85	10.344
169.824	10.298
170.805	10.2521
171.791	10.2065
172.783	10.1611
173.78	10.1159
174.783	10.0709
175.792	10.0261
176.807	9.98149
177.828	9.93711
178.855	9.89294
179.887	9.84897
180.926	9.80521
181.97	9.76165
183.021	9.71829
184.077	9.67513
185.14	9.63217
186.209	9.58942
187.284	9.54686
188.365	9.5045
189.452	9.46234
190.546	9.42037
191.646	9.3786
192.752	9.33702
193.865	9.29564
194.984	9.25445
196.11	9.21345
197.242	9.17265
198.381	9.13203
199.526	9.09161
200.678	9.05138
201.837	9.0152
203.002	8.97535
204.174	8.93569
205.353	8.89621
206.538	8.85691
207.73	8.8178
208.93	8.77887
210.136	8.74013
211.349	8.70156
212.569	8.66318
213.796	8.62497
215.03	8.58695
216.272	8.5491
217.52	8.51143
218.776	8.47394
220.039	8.43662
221.309	8.39948
222.587	8.36252
223.872	8.32573
225.165	8.28911
226.464	8.25266
227.772	8.21639
229.087	8.18028
230.409	8.14435
231.739	8.10859
233.077	8.07299
234.423	8.03756
235.776	8.0023
237.137	7.96721
238.506	7.93229
239.883	7.89752
241.268	7.86293
242.661	7.82849
244.062	7.79422
245.471	7.76012
246.888	7.72617
248.313	7.69239
249.747	7.65876
251.189	7.6253
252.639	7.592
254.097	7.55885
255.564	7.52586
257.04	7.49303
258.523	7.46035
260.016	7.42783
261.517	7.39547
263.027	7.36326
264.545	7.3312
266.073	7.2993
267.609	7.26755
269.153	7.23595
270.707	7.2045
272.27	7.1732
273.842	7.14205
275.423	7.11105
277.013	7.0802
278.612	7.0495
280.221	7.01894
281.838	6.98854
283.465	6.95827
285.102	6.92816
286.748	6.89818
288.403	6.86835
290.068	6.83867
291.743	6.80913
293.427	6.77972
295.121	6.75047
296.825	6.72135
298.538	6.69237
300.262	6.66353
301.995	6.63483
303.739	6.60627
305.492	6.57785
307.256	6.54957
309.03	6.52142
310.814	6.49341
312.608	6.46553
314.413	6.43779
316.228	6.41018
318.053	6.38271
319.89	6.35537
321.736	6.32816
323.594	6.30108
325.462	6.27414
327.341	6.24732
329.23	6.22064
331.131	6.19409
333.043	6.16766
334.965	6.14136
336.899	6.1152
338.844	6.08916
340.8	6.06324
342.768	6.03745
344.747	6.01179
346.737	5.98626
348.739	5.96084
350.752	5.93556
352.777	5.91039
354.813	5.88535
356.862	5.86043
358.922	5.83563
360.994	5.81096
363.078	5.7864
365.174	5.76197
367.282	5.73765
369.403	5.71346
371.535	5.68938
373.68	5.66542
375.837	5.64158
378.007	5.61786
380.189	5.59425
382.384	5.57076
384.592	5.54738
386.812	5.52412
389.045	5.50098
391.291	5.47795
393.55	5.45503
395.822	5.43222
398.107	5.40953
400.405	5.38695
402.717	5.36448
405.042	5.34212
407.38	5.31987
409.732	5.29774
412.098	5.27571
414.477	5.25379
416.869	5.23198
419.276	5.21028
421.697	5.18868
424.131	5.16719
426.58	5.14581
429.042	5.12454
431.519	5.10337
434.01	5.08231
436.516	5.06135
439.036	5.04049
441.57	5.01974
444.12	4.9991
446.684	4.97855
449.262	4.95811
451.856	4.93777
454.465	4.91753
457.088	4.89739
459.727	4.87736
462.381	4.85742
465.05	4.83758
467.735	4.81785
470.435	4.79821
473.151	4.77867
475.883	4.75922
478.63	4.73988
481.393	4.72063
484.172	4.70148
486.968	4.68243
489.779	4.66347
492.606	4.6446
495.45	4.62583
498.31	4.60716
501.187	4.58858
504.081	4.57009
506.991	4.5517
509.918	4.5334
512.861	4.51519
515.822	4.49707
518.8	4.47905
521.795	4.46112
524.807	4.44327
527.837	4.42552
530.884	4.40786
533.949	4.39028
537.032	4.3728
540.132	4.3554
543.25	4.3381
546.387	4.32088
549.541	4.30375
552.713	4.2867
555.904	4.26974
559.114	4.25287
562.341	4.23609
565.588	4.21938
568.853	4.20277
572.137	4.18624
575.44	4.16979
578.762	4.15343
582.103	4.13715
585.464	4.12096
588.844	4.10484
592.243	4.08881
595.662	4.07287
599.101	4.057
602.56	4.04122
606.038	4.02551
609.537	4.00989
613.056	3.99435
616.595	3.97888
620.155	3.9635
623.735	3.94819
627.336	3.93297
630.957	3.91782
634.6	3.90275
638.263	3.88776
641.948	3.87285
645.654	3.85801
649.382	3.84325
653.131	3.82856
656.901	3.81396
660.693	3.79942
664.508	3.78497
668.344	3.77059
672.202	3.75628
676.083	3.74204
679.986	3.72788
683.912	3.7138
687.86	3.69979
691.831	3.68585
695.825	3.67198
699.842	3.65818
703.882	3.64446
707.946	3.63081
712.033	3.61723
716.143	3.60372
720.278	3.59028
724.436	3.57691
728.618	3.56362
732.825	3.55039
737.055	3.53723
741.31	3.52414
745.59	3.51112
749.894	3.49816
754.223	3.48528
758.578	3.47246
762.957	3.45971
767.361	3.44703
771.792	3.43441
776.247	3.42186
780.728	3.40938
785.236	3.39696
789.769	3.38461
794.328	3.37233
798.914	3.36011
803.526	3.34795
808.165	3.33586
812.831	3.32383
817.523	3.31187
822.243	3.29997
826.99	3.28813
831.764	3.27635
836.566	3.26464
841.395	3.25299
846.253	3.24141
851.138	3.22988
856.052	3.21842
860.994	3.20702
865.964	3.19568
870.964	3.18439
875.992	3.17317
881.049	3.16201
886.135	3.15091
891.251	3.13987
896.396	3.12889
901.571	3.11797
906.776	3.10711
912.011	3.0963
917.276	3.08556
922.571	3.07487
927.897	3.06424
933.254	3.05367
938.642	3.04315
944.061	3.03269
949.511	3.02229
954.993	3.01194
960.506	3.00165
966.051	2.99142
971.628	2.98124
977.237	2.97112
982.879	2.96105
988.553	2.95104
994.26	2.94108
1000	2.93118
1005.77	2.92133
1011.58	2.91153
1017.42	2.90179
1023.29	2.8921
1029.2	2.88247
1035.14	2.87288
1041.12	2.86335
1047.13	2.85388
1053.17	2.84445
1059.25	2.83508
1065.37	2.82576
1071.52	2.81649
1077.71	2.80727
1083.93	2.7981
1090.18	2.78899
1096.48	2.77992
1102.81	2.7709
1109.17	2.76194
1115.58	2.75302
1122.02	2.74416
1128.5	2.73534
1135.01	2.72657
1141.56	2.71785
1148.15	2.70918
1154.78	2.70056
1161.45	2.69199
1168.15	2.68347
1174.9	2.67499
1181.68	2.66656
1188.5	2.65818
1195.36	2.64984
1202.26	2.64156
1209.21	2.63332
1216.19	2.62512
1223.21	2.61697
1230.27	2.60887
1237.37	2.60082
1244.51	2.59281
1251.7	2.58484
1258.93	2.57692
1266.19	2.56905
1273.5	2.56122
1280.86	2.55344
1288.25	2.5457
1295.69	2.538
1303.17	2.53035
1310.69	2.52274
1318.26	2.51518
1325.87	2.50766
1333.52	2.50018
1341.22	2.49275
1348.96	2.48536
1356.75	2.47801
1364.58	2.4707
1372.46	2.46344
1380.38	2.45622
1388.35	2.44904
1396.37	2.4419
1404.43	2.43481
1412.54	2.42775
1420.69	2.42074
1428.89	2.41377
1437.14	2.40684
1445.44	2.39995
1453.78	2.3931
1462.18	2.38629
1470.62	2.37952
1479.11	2.37279
1487.65	2.3661
1496.24	2.35945
1504.87	2.35284
1513.56	2.34626
1522.3	2.33973
1531.09	2.33324
1539.93	2.32678
1548.82	2.32036
1557.76	2.31398
1566.75	2.30764
1575.8	2.30134
1584.89	2.29508
1594.04	2.28885
1603.25	2.28266
1612.5	2.27651
1621.81	2.27039
1631.17	2.26431
1640.59	2.25827
1650.06	2.25227
1659.59	2.2463
1669.17	2.24037
1678.8	2.23447
1688.5	2.22861
1698.24	2.22278
1708.05	2.217
1717.91	2.21124
1727.83	2.20552
1737.8	2.19984
1747.83	2.19419
1757.92	2.18858
1768.07	2.183
1778.28	2.17746
1788.55	2.17195
1798.87	2.16647
1809.26	2.16103
1819.7	2.15563
1830.21	2.15025
1840.77	2.14491
1851.4	2.1396
1862.09	2.13433
1872.84	2.12909
1883.65	2.12388
1894.52	2.11871
1905.46	2.11357
1916.46	2.10846
1927.52	2.10338
1938.65	2.09834
1949.84	2.09333
1961.1	2.08835
1972.42	2.0834
1983.81	2.07848
1995.26	2.07359
2006.78	2.06874
2018.37	2.06392
2030.02	2.05913
2041.74	2.05436
2053.53	2.04964
2065.38	2.04494
2077.3	2.04027
2089.3	2.03563
2101.36	2.03102
2113.49	2.02644
2125.69	2.02189
2137.96	2.01738
2150.3	2.01289
2162.72	2.00843
2175.2	2.004
2187.76	1.9996
2200.39	1.99523
2213.09	1.99089
2225.87	1.98657
2238.72	1.98229
2251.65	1.97803
2264.64	1.97381
2277.72	1.96961
2290.87	1.96544
2304.09	1.9613
2317.39	1.95718
2330.77	1.9531
2344.23	1.94904
2357.76	1.94501
2371.37	1.941
2385.06	1.93703
2398.83	1.93308
2412.68	1.92916
2426.61	1.92526
2440.62	1.9214
2454.71	1.91755
2468.88	1.91374
2483.13	1.90995
2497.47	1.90619
2511.89	1.90246
2526.39	1.89875
2540.97	1.89506
2555.64	1.89141
2570.4	1.88777
2585.23	1.88417
2600.16	1.88059
2615.17	1.87703
2630.27	1.87351
2645.45	1.87
2660.73	1.86652
2676.09	1.86307
2691.53	1.85964
2707.07	1.85623
2722.7	1.85285
2738.42	1.8495
2754.23	1.84617
2770.13	1.84286
2786.12	1.83958
2802.21	1.83632
2818.38	1.83309
2834.65	1.82988
2851.02	1.82669
2867.48	1.82353
2884.03	1.82039
2900.68	1.81727
2917.43	1.81418
2934.27	1.81111
2951.21	1.80806
2968.25	1.80504
2985.38	1.80204
3002.62	1.79906
3019.95	1.7961
3037.39	1.79317
3054.92	1.79026
3072.56	1.78737
3090.3	1.7845
3108.14	1.78166
3126.08	1.77884
3144.13	1.77604
3162.28	1.77326
3180.53	1.7705
3198.9	1.76777
3217.36	1.76506
3235.94	1.76236
3254.62	1.75969
3273.41	1.75704
3292.3	1.75452
3311.31	1.75199
3330.43	1.74948
3349.65	1.747
3368.99	1.74453
3388.44	1.74208
3408	1.73965
3427.68	1.73724
3447.47	1.73486
3467.37	1.73249
3487.39	1.73014
3507.52	1.72781
3527.77	1.7255
3548.13	1.72321
3568.62	1.72094
3589.22	1.71869
3609.94	1.71646
3630.78	1.71425
3651.74	1.71205
3672.82	1.70988
3694.03	1.70772
3715.35	1.70558
3736.8	1.70347
3758.37	1.70137
3780.07	1.69928
3801.89	1.69722
3823.84	1.69518
3845.92	1.69315
3868.12	1.69114
3890.45	1.68915
3912.91	1.68718
3935.5	1.68523
3958.22	1.68329
3981.07	1.68138
4004.05	1.67948
4027.17	1.67759
4050.42	1.67573
4073.8	1.67388
4097.32	1.67205
4120.98	1.67024
4144.77	1.66844
4168.69	1.66666
4192.76	1.6649
4216.97	1.66316
4241.31	1.66143
4265.8	1.65972
4290.42	1.65803
4315.19	1.65635
4340.1	1.65469
4365.16	1.65305
4390.36	1.65142
4415.7	1.64981
4441.2	1.64822
4466.84	1.64664
4492.62	1.64508
4518.56	1.64353
4544.65	1.642
4570.88	1.64049
4597.27	1.63899
4623.81	1.63751
4650.5	1.63604
4677.35	1.63459
4704.35	1.63315
4731.51	1.63173
4758.83	1.63033
4786.3	1.62894
4813.93	1.62757
4841.72	1.62621
4869.68	1.62487
4897.79	1.62354
4926.06	1.62222
4954.5	1.62093
4983.1	1.61964
5011.87	1.61838
5040.81	1.61712
5069.91	1.61588
5099.18	1.61466
5128.61	1.61345
5158.22	1.61225
5188	1.61107
5217.95	1.6099
5248.07	1.60875
5278.37	1.60761
5308.84	1.60649
5339.49	1.60538
5370.32	1.60428
5401.32	1.6032
5432.5	1.60213
5463.87	1.60108
5495.41	1.60004
5527.13	1.59901
5559.04	1.598
5591.14	1.597
5623.41	1.59601
5655.88	1.59504
5688.53	1.59408
5721.37	1.59313
5754.4	1.59219
5787.62	1.59127
5821.03	1.59037
5854.64	1.58947
5888.44	1.58859
5922.43	1.58772
5956.62	1.58687
5991.01	1.58602
6025.6	1.58519
6060.38	1.58437
6095.37	1.58357
6130.56	1.58278
6165.95	1.58199
6201.55	1.58123
6237.35	1.58047
6273.36	1.57973
6309.57	1.579
6346	1.57828
6382.63	1.57757
6419.48	1.57687
6456.54	1.57619
6493.82	1.57552
6531.31	1.57486
6569.01	1.57421
6606.93	1.57357
6645.08	1.57295
6683.44	1.57233
6722.02	1.57173
6760.83	1.57114
6799.86	1.57056
6839.12	1.57
6878.6	1.56944
6918.31	1.56889
6958.25	1.56836
6998.42	1.56784
7038.82	1.56732
7079.46	1.56682
7120.33	1.56633
7161.43	1.56585
7202.78	1.56539
7244.36	1.56493
7286.18	1.56448
7328.25	1.56404
7370.55	1.56362
7413.1	1.5632
7455.9	1.5628
7498.94	1.5624
7542.23	1.56202
7585.78	1.56164
7629.57	1.56128
7673.61	1.56093
7717.92	1.56058
7762.47	1.56025
7807.28	1.55993
7852.36	1.55961
7897.69	1.55931
7943.28	1.55902
7989.14	1.55873
8035.26	1.55846
8081.65	1.55819
8128.31	1.55794
8175.23	1.55769
8222.43	1.55746
8269.9	1.55723
8317.64	1.55701
8365.66	1.5568
8413.95	1.55661
8462.53	1.55642
8511.38	1.55624
8560.52	1.55607
8609.94	1.5559
8659.64	1.55575
8709.64	1.55561
8759.92	1.55547
8810.49	1.55535
8861.35	1.55523
8912.51	1.55512
8963.96	1.55502
9015.71	1.55493
9067.76	1.55485
9120.11	1.55477
9172.76	1.55471
9225.71	1.55465
9278.97	1.5546
9332.54	1.55456
9386.42	1.55453
9440.61	1.55451
9495.11	1.55449
9549.93	1.55449
9605.06	1.55449
9660.51	1.5545
9716.28	1.55451
9772.37	1.55454
9828.79	1.55457
9885.53	1.55461
9942.6	1.55466
10000	1.55472
10057.7	1.55478
10115.8	1.55485
10174.2	1.55493
10232.9	1.55502
10292	1.55512
10351.4	1.55522
10411.2	1.55533
10471.3	1.55545
10531.7	1.55557
10592.5	1.5557
10653.7	1.55584
10715.2	1.55599
10777.1	1.55614
10839.3	1.5563
10901.8	1.55647
10964.8	1.55664
11028.1	1.55683
11091.7	1.55701
11155.8	1.55721
11220.2	1.55741
11285	1.55762
11350.1	1.55784
11415.6	1.55806
11481.5	1.55829
11547.8	1.55853
11614.5	1.55877
11681.5	1.55902
11749	1.55928
11816.8	1.55954
11885	1.55981
11953.6	1.56008
12022.6	1.56036
12092.1	1.56065
12161.9	1.56095
12232.1	1.56125
12302.7	1.56155
12373.7	1.56186
12445.1	1.56218
12517	1.56251
12589.3	1.56284
12661.9	1.56318
12735	1.56352
12808.6	1.56387
12882.5	1.56422
12956.9	1.56458
13031.7	1.56495
13106.9	1.56532
13182.6	1.5657
13258.7	1.56608
13335.2	1.56647
13412.2	1.56686
13489.6	1.56726
13567.5	1.56767
13645.8	1.56808
13724.6	1.5685
13803.8	1.56892
13883.5	1.56934
13963.7	1.56978
14044.3	1.57021
14125.4	1.57066
14206.9	1.57111
14288.9	1.57156
14371.4	1.57202
14454.4	1.57248
14537.8	1.57295
14621.8	1.57342
14706.2	1.5739
14791.1	1.57438
14876.5	1.57487
14962.4	1.57536
15048.7	1.57586
15135.6	1.57636
15223	1.57687
15310.9	1.57738
15399.3	1.5779
15488.2	1.57842
15577.6	1.57895
15667.5	1.57948
15758	1.58001
15848.9	1.58055
15940.4	1.5811
16032.5	1.58165
16125	1.5822
16218.1	1.58276
16311.7	1.58332
16405.9	1.58388
16500.6	1.58445
16595.9	1.58503
16691.7	1.58561
16788	1.58619
16885	1.58678
16982.4	1.58737
17080.5	1.58796
17179.1	1.58856
17278.3	1.58916
17378	1.58977
17478.3	1.59038
17579.2	1.591
17680.7	1.59162
17782.8	1.59224
17885.5	1.59286
17988.7	1.59349
18092.6	1.59413
18197	1.59477
18302.1	1.59541
18407.7	1.59605
18514	1.5967
18620.9	1.59735
18728.4	1.59801
18836.5	1.59867
18945.2	1.59933
19054.6	1.6
19164.6	1.60067
19275.2	1.60134
19386.5	1.60202
19498.4	1.6027
19611	1.60338
19724.2	1.60407
19838.1	1.60476
19952.6	1.60545
20067.8	1.60615
20183.7	1.60685
20300.2	1.60755
20417.4	1.60826
20535.3	1.60897
20653.8	1.60968
20773	1.61039
20893	1.61111
21013.6	1.61183
21134.9	1.61256
21256.9	1.61328
21379.6	1.61401
21503	1.61475
21627.2	1.61548
21752	1.61622
21877.6	1.61696
22003.9	1.61771
22130.9	1.61845
22258.7	1.6192
22387.2	1.61996
22516.5	1.62071
22646.4	1.62147
22777.2	1.62223
22908.7	1.62299
23040.9	1.62376
23173.9	1.62453
23307.7	1.6253
23442.3	1.62607
23577.6	1.62685
23713.7	1.62763
23850.6	1.62841
23988.3	1.62919
24126.8	1.62998
24266.1	1.63076
24406.2	1.63155
24547.1	1.63235
24688.8	1.63314
24831.3	1.63394
24974.7	1.63474
25118.9	1.63554
25263.9	1.63634
25409.7	1.63715
25556.4	1.63796
25704	1.63877
25852.3	1.63958
26001.6	1.6404
26151.7	1.64121
26302.7	1.64203
26454.5	1.64285
26607.3	1.64368
26760.9	1.6445
26915.3	1.64533
27070.7	1.64616
27227	1.64699
27384.2	1.64782
27542.3	1.64866
27701.3	1.64949
27861.2	1.65033
28022.1	1.65117
28183.8	1.65201
28346.5	1.65286
28510.2	1.6537
28674.8	1.65455
28840.3	1.6554
29006.8	1.65625
29174.3	1.6571
29342.7	1.65796
29512.1	1.65881
29682.5	1.65967
29853.8	1.66053
30026.2	1.66139
30199.5	1.66225
30373.9	1.66312
30549.2	1.66398
30725.6	1.66485
30903	1.66572
31081.4	1.66659
31260.8	1.66746
31441.3	1.66833
31622.8	1.66921
31805.3	1.67008
31989	1.67096
32173.6	1.67184
32359.4	1.67272
32546.2	1.6736
32734.1	1.67448
32923	1.67537
33113.1	1.67625
33304.3	1.67714
33496.5	1.67803
33689.9	1.67892
33884.4	1.67981
34080	1.6807
34276.8	1.68159
34474.7	1.68249
34673.7	1.68338
34873.9	1.68428
35075.2	1.68518
35277.7	1.68607
35481.3	1.68697
35686.2	1.68788
35892.2	1.68878
36099.4	1.68968
36307.8	1.69059
36517.4	1.69149
36728.2	1.6924
36940.3	1.6933
37153.5	1.69421
37368	1.69512
37583.7	1.69603
37800.7	1.69694
38018.9	1.69786
38238.4	1.69877
38459.2	1.69968
38681.2	1.7006
38904.5	1.70151
39129.1	1.70243
39355	1.70335
39582.2	1.70427
39810.7	1.70519
40040.5	1.70611
40271.7	1.70703
40504.2	1.70795
40738	1.70887
40973.2	1.7098
41209.8	1.71072
41447.7	1.71164
41686.9	1.71257
41927.6	1.7135
42169.7	1.71442
42413.1	1.71535
42658	1.71628
42904.2	1.71721
43151.9	1.71814
43401	1.71907
43651.6	1.72
43903.6	1.72093
44157	1.72186
44412	1.7228
44668.4	1.72373
44926.2	1.72466
45185.6	1.7256
45446.5	1.72654
45708.8	1.72747
45972.7	1.72841
46238.1	1.72934
46505	1.73028
46773.5	1.73122
47043.5	1.73216
47315.1	1.7331
47588.3	1.73404
47863	1.73498
48139.3	1.73592
48417.2	1.73686
48696.8	1.7378
48977.9	1.73874
49260.6	1.73968
49545	1.74063
49831	1.74157
50118.7	1.74251
50408.1	1.74346
50699.1	1.7444
50991.8	1.74535
51286.1	1.74629
51582.2	1.74724
51880	1.74818
52179.5	1.74913
52480.7	1.75007
52783.7	1.75102
53088.4	1.75197
53394.9	1.75291
53703.2	1.75386
54013.2	1.75481
54325	1.75576
54638.7	1.7567
54954.1	1.75765
55271.3	1.7586
55590.4	1.75955
55911.4	1.7605
56234.1	1.76145
56558.8	1.7624
56885.3	1.76335
57213.7	1.7643
57544	1.76525
57876.2	1.7662
58210.3	1.76715
58546.4	1.7681
58884.4	1.76905
59224.3	1.77
59566.2	1.77095
59910.1	1.77191
60256	1.77286
60603.8	1.77381
60953.7	1.77476
61305.6	1.77571
61659.5	1.77666
62015.5	1.77762
62373.5	1.77857
62733.6	1.77952
63095.7	1.78047
63460	1.78143
63826.3	1.78238
64194.8	1.78333
64565.4	1.78428
64938.2	1.78523
65313.1	1.78619
65690.1	1.78714
66069.3	1.78809
66450.8	1.78905
66834.4	1.79
67220.2	1.79095
67608.3	1.7919
67998.6	1.79286
68391.2	1.79381
68786	1.79476
69183.1	1.79571
69582.5	1.79667
69984.2	1.79762
70388.2	1.79857
70794.6	1.79952
71203.3	1.80048
71614.3	1.80143
72027.8	1.80238
72443.6	1.80333
72861.8	1.80428
73282.5	1.80524
73705.5	1.80619
74131	1.80714
74559	1.80809
74989.4	1.80904
75422.3	1.81
75857.8	1.81095
76295.7	1.8119
76736.1	1.81285
77179.2	1.8138
77624.7	1.81475
78072.8	1.8157
78523.6	1.81665
78976.9	1.8176
79432.8	1.81855
79891.4	1.8195
80352.6	1.82045
80816.5	1.8214
81283.1	1.82235
81752.3	1.8233
82224.3	1.82425
82699	1.8252
83176.4	1.82615
83656.6	1.8271
84139.5	1.82805
84625.3	1.829
85113.8	1.82994
85605.2	1.83089
86099.4	1.83184
86596.4	1.83279
87096.4	1.83373
87599.2	1.83468
88104.9	1.83563
88613.5	1.83657
89125.1	1.83752
89639.6	1.83847
90157.1	1.83941
90677.6	1.84036
91201.1	1.8413
91727.6	1.84225
92257.1	1.84319
92789.7	1.84414
93325.4	1.84508
93864.2	1.84603
94406.1	1.84697
94951.1	1.84792
95499.3	1.84886
96050.6	1.8498
96605.1	1.85074
97162.8	1.85169
97723.7	1.85263
98287.9	1.85357
98855.3	1.85451
99426	1.85545
100000	1.85639
100577	1.85734
101158	1.85828
101742	1.85922
102329	1.86016
102920	1.8611
103514	1.86203
104112	1.86297
104713	1.86391
105317	1.86485
105925	1.86579
106537	1.86673
107152	1.86766
107771	1.8686
108393	1.86954
109018	1.87047
109648	1.87141
110281	1.87234
110917	1.87328
111558	1.87421
112202	1.87515
112850	1.87608
113501	1.87701
114156	1.87795
114815	1.87888
115478	1.87981
116145	1.88075
116815	1.88168
117490	1.88261
118168	1.88354
118850	1.88447
119536	1.8854
120226	1.88633
120921	1.88726
121619	1.88819
122321	1.88912
123027	1.89005
123737	1.89098
124451	1.8919
125170	1.89283
125893	1.89376
126619	1.89468
127350	1.89561
128086	1.89653
128825	1.89746
129569	1.89838
130317	1.89931
131069	1.90023
131826	1.90116
132587	1.90208
133352	1.903
134122	1.90392
134896	1.90485
135675	1.90577
136458	1.90669
137246	1.90761
138038	1.90853
138835	1.90945
139637	1.91037
140443	1.91129
141254	1.91221
142069	1.91312
142889	1.91404
143714	1.91496
144544	1.91588
145378	1.91679
146218	1.91771
147062	1.91862
147911	1.91954
148765	1.92045
149624	1.92137
150487	1.92228
151356	1.92319
152230	1.92411
153109	1.92502
153993	1.92593
154882	1.92684
155776	1.92775
156675	1.92866
157580	1.92957
158489	1.93048
159404	1.93139
160325	1.9323
161250	1.93321
162181	1.93412
163117	1.93502
164059	1.93593
165006	1.93684
165959	1.93774
166917	1.93865
167880	1.93955
168850	1.94046
169824	1.94136
170805	1.94226
171791	1.94317
172783	1.94407
173780	1.94497
174783	1.94587
175792	1.94677
176807	1.94767
177828	1.94857
178855	1.94947
179887	1.95037
180926	1.95127
181970	1.95217
183021	1.95307
184077	1.95396
185140	1.95486
186209	1.95576
187284	1.95665
188365	1.95755
189452	1.95844
190546	1.95934
191646	1.96023
192752	1.96113
193865	1.96202
194984	1.96291
196110	1.9638
197242	1.96469
198381	1.96558
199526	1.96647
200678	1.96736
201837	1.96825
203002	1.96914
204174	1.97003
205353	1.97092
206538	1.97181
207730	1.97269
208930	1.97358
210136	1.97447
211349	1.97535
212569	1.97624
213796	1.97712
215030	1.978
216272	1.97889
217520	1.97977
218776	1.98065
220039	1.98154
221309	1.98242
222587	1.9833
223872	1.98418
225165	1.98506
226464	1.98594
227772	1.98682
229087	1.98769
230409	1.98857
231739	1.98945
233077	1.99033
234423	1.9912
235776	1.99208
237137	1.99295
238506	1.99383
239883	1.9947
241268	1.99558
242661	1.99645
244062	1.99732
245471	1.9982
246888	1.99907
248313	1.99994
249747	2.00081
251189	2.00168
252639	2.00255
254097	2.00342
255564	2.00429
257040	2.00516
258523	2.00602
260016	2.00689
261517	2.00776
263027	2.00862
264545	2.00949
266073	2.01035
267609	2.01122
269153	2.01208
270707	2.01295
272270	2.01381
273842	2.01467
275423	2.01553
277013	2.0164
278612	2.01726
280221	2.01812
281838	2.01898
283465	2.01984
285102	2.0207
286748	2.02155
288403	2.02241
290068	2.02327
291743	2.02413
293427	2.02498
295121	2.02584
296825	2.02669
298538	2.02755
300262	2.0284
301995	2.02926
303739	2.03011
305492	2.03096
307256	2.03182
309030	2.03267
310814	2.03352
312608	2.03437
314413	2.03522
316228	2.03607
318053	2.03692
319890	2.03777
321736	2.03862
323594	2.03946
325462	2.04031
327341	2.04116
329230	2.042
331131	2.04285
333043	2.04369
334965	2.04454
336899	2.04538
338844	2.04623
340800	2.04707
342768	2.04791
344747	2.04875
346737	2.04959
348739	2.05044
350752	2.05128
352777	2.05212
354813	2.05295
356862	2.05379
358922	2.05463
360994	2.05547
363078	2.05631
365174	2.05714
367282	2.05798
369403	2.05882
371535	2.05965
373680	2.06049
375837	2.06132
378007	2.06215
380189	2.06299
382384	2.06382
384592	2.06465
386812	2.06548
389045	2.06631
391291	2.06714
393550	2.06797
395822	2.0688
398107	2.06963
400405	2.07046
402717	2.07129
405042	2.07212
407380	2.07294
409732	2.07377
412098	2.0746
414477	2.07542
416869	2.07625
419276	2.07707
421697	2.07789
424131	2.07872
426580	2.07954
429042	2.08036
431519	2.08118
434010	2.08201
436516	2.08283
439036	2.08365
441570	2.08447
444120	2.08529
446684	2.0861
449262	2.08692
451856	2.08774
454465	2.08856
457088	2.08937
459727	2.09019
462381	2.091
465050	2.09182
467735	2.09263
470435	2.09345
473151	2.09426
475883	2.09507
478630	2.09589
481393	2.0967
484172	2.09751
486968	2.09832
489779	2.09913
492606	2.09994
495450	2.10075
498310	2.10156
501187	2.10237
504081	2.10318
506991	2.10398
509918	2.10479
512861	2.1056
515822	2.1064
518800	2.10721
521795	2.10801
524807	2.10882
527837	2.10962
530884	2.11042
533949	2.11123
537032	2.11203
540132	2.11283
543250	2.11363
546387	2.11443
549541	2.11523
552713	2.11603
555904	2.11683
559114	2.11763
562341	2.11843
565588	2.11922
568853	2.12002
572137	2.12082
575440	2.12161
578762	2.12241
582103	2.1232
585464	2.124
588844	2.12479
592243	2.12559
595662	2.12638
599101	2.12717
602560	2.12796
606038	2.12875
609537	2.12954
613056	2.13034
616595	2.13112
620155	2.13191
623735	2.1327
627336	2.13349
630957	2.13428
634600	2.13507
638263	2.13585
641948	2.13664
645654	2.13743
649382	2.13821
653131	2.13899
656901	2.13978
660693	2.14056
664508	2.14135
668344	2.14213
672202	2.14291
676083	2.14369
679986	2.14447
683912	2.14525
687860	2.14603
691831	2.14681
695825	2.14759
699842	2.14837
703882	2.14915
707946	2.14993
712033	2.1507
716143	2.15148
720278	2.15226
724436	2.15303
728618	2.15381
732825	2.15458
737055	2.15536
741310	2.15613
745590	2.1569
749894	2.15767
754223	2.15845
758578	2.15922
762957	2.15999
767361	2.16076
771792	2.16153
776247	2.1623
780728	2.16307
785236	2.16384
789769	2.1646
794328	2.16537
798914	2.16614
803526	2.1669
808165	2.16767
812831	2.16844
817523	2.1692
822243	2.16996
826990	2.17073
831764	2.17149
836566	2.17225
841395	2.17302
846253	2.17378
851138	2.17454
856052	2.1753
860994	2.17606
865964	2.17682
870964	2.17758
875992	2.17834
881049	2.1791
886135	2.17986
891251	2.18061
896396	2.18137
901571	2.18213
906776	2.18288
912011	2.18364
917276	2.18439
922571	2.18515
927897	2.1859
933254	2.18665
938642	2.1874
944061	2.18816
949511	2.18891
954993	2.18966
960506	2.19041
966051	2.19116
971628	2.19191
977237	2.19266
982879	2.19341
988553	2.19416
994260	2.1949
1e+06	2.19565
1.00577e+06	2.1964
1.01158e+06	2.19714
1.01742e+06	2.19789
1.02329e+06	2.19863
1.0292e+06	2.19938
1.03514e+06	2.20012
1.04112e+06	2.20087
1.04713e+06	2.20161
1.05317e+06	2.20235
1.05925e+06	2.20309
1.06537e+06	2.20384
1.07152e+06	2.20458
1.07771e+06	2.20532
1.08393e+06	2.20606
1.09018e+06	2.2068
1.09648e+06	2.20754
1.10281e+06	2.20828
1.10917e+06	2.20901
1.11558e+06	2.20975
1.12202e+06	2.21049
1.1285e+06	2.21122
1.13501e+06	2.21196
1.14156e+06	2.2127
1.14815e+06	2.21343
1.15478e+06	2.21417
1.16145e+06	2.2149
1.16815e+06	2.21563
1.1749e+06	2.21637
1.18168e+06	2.2171
1.1885e+06	2.21783
1.19536e+06	2.21856
1.20226e+06	2.21929
1.20921e+06	2.22002
1.21619e+06	2.22075
1.22321e+06	2.22148
1.23027e+06	2.22221
1.23737e+06	2.22294
1.24451e+06	2.22367
1.2517e+06	2.2244
1.25893e+06	2.22512
1.26619e+06	2.22585
1.2735e+06	2.22658
1.28086e+06	2.2273
1.28825e+06	2.22803
1.29569e+06	2.22875
1.30317e+06	2.22948
1.31069e+06	2.2302
1.31826e+06	2.23092
1.32587e+06	2.23165
1.33352e+06	2.23237
1.34122e+06	2.23309
1.34896e+06	2.23381
1.35675e+06	2.23453
1.36458e+06	2.23525
1.37246e+06	2.23597
1.38038e+06	2.23669
1.38835e+06	2.23741
1.39637e+06	2.23813
1.40443e+06	2.23884
1.41254e+06	2.23956
1.42069e+06	2.24028
1.42889e+06	2.24099
1.43714e+06	2.24171
1.44544e+06	2.24242
1.45378e+06	2.24314
1.46218e+06	2.24385
1.47062e+06	2.24457
1.47911e+06	2.24528
1.48765e+06	2.24599
1.49624e+06	2.2467
1.50487e+06	2.24742
1.51356e+06	2.24813
1.5223e+06	2.24884
1.53109e+06	2.24955
1.53993e+06	2.25026
1.54882e+06	2.25097
1.55776e+06	2.25167
1.56675e+06	2.25238
1.5758e+06	2.25309
1.58489e+06	2.2538
1.59404e+06	2.2545
1.60325e+06	2.25521
1.6125e+06	2.25592
1.62181e+06	2.25662
1.63117e+06	2.25733
1.64059e+06	2.25803
1.65006e+06	2.25873
1.65959e+06	2.25944
1.66917e+06	2.26014
1.6788e+06	2.26084
1.6885e+06	2.26154
1.69824e+06	2.26224
1.70805e+06	2.26295
1.71791e+06	2.26365
1.72783e+06	2.26435
1.7378e+06	2.26504
1.74783e+06	2.26574
1.75792e+06	2.26644
1.76807e+06	2.26714
1.77828e+06	2.26784
1.78855e+06	2.26853
1.79887e+06	2.26923
1.80926e+06	2.26993
1.8197e+06	2.27062
1.83021e+06	2.27132
1.84077e+06	2.27201
1.8514e+06	2.2727
1.86209e+06	2.2734
1.87284e+06	2.27409
1.88365e+06	2.27478
1.89452e+06	2.27547
1.90546e+06	2.27617
1.91646e+06	2.27686
1.92752e+06	2.27755
1.93865e+06	2.27824
1.94984e+06	2.27893
1.9611e+06	2.27961
1.97242e+06	2.2803
1.98381e+06	2.28099
1.99526e+06	2.28168
2.00678e+06	2.28237
2.01837e+06	2.28305
2.03002e+06	2.28374
2.04174e+06	2.28442
2.05353e+06	2.28511
2.06538e+06	2.28579
2.0773e+06	2.28648
2.0893e+06	2.28716
2.10136e+06	2.28784
2.11349e+06	2.28853
2.12569e+06	2.28921
2.13796e+06	2.28989
2.1503e+06	2.29057
2.16272e+06	2.29125
2.1752e+06	2.29193
2.18776e+06	2.29261
2.20039e+06	2.29329
2.21309e+06	2.29397
2.22587e+06	2.29465
2.23872e+06	2.29532
2.25165e+06	2.296
2.26464e+06	2.29668
2.27772e+06	2.29735
2.29087e+06	2.29803
2.30409e+06	2.2987
2.31739e+06	2.29938
2.33077e+06	2.30005
2.34423e+06	2.30073
2.35776e+06	2.3014
2.37137e+06	2.30207
2.38506e+06	2.30274
2.39883e+06	2.30342
2.41268e+06	2.30409
2.42661e+06	2.30476
2.44062e+06	2.30543
2.45471e+06	2.3061
2.46888e+06	2.30677
2.48313e+06	2.30744
2.49747e+06	2.3081
2.51189e+06	2.30877
2.52639e+06	2.30944
2.54097e+06	2.31011
2.55564e+06	2.31077
2.5704e+06	2.31144
2.58523e+06	2.3121
2.60016e+06	2.31277
2.61517e+06	2.31343
2.63027e+06	2.3141
2.64545e+06	2.31476
2.66073e+06	2.31542
2.67609e+06	2.31609
2.69153e+06	2.31675
2.70707e+06	2.31741
2.7227e+06	2.31807
2.73842e+06	2.31873
2.75423e+06	2.31939
2.77013e+06	2.32005
2.78612e+06	2.32071
2.80221e+06	2.32137
2.81838e+06	2.32202
2.83465e+06	2.32268
2.85102e+06	2.32334
2.86748e+06	2.324
2.88403e+06	2.32465
2.90068e+06	2.32531
2.91743e+06	2.32596
2.93427e+06	2.32662
2.95121e+06	2.32727
2.96825e+06	2.32792
2.98538e+06	2.32858
3.00262e+06	2.32923
3.01995e+06	2.32988
3.03739e+06	2.33053
3.05492e+06	2.33118
3.07256e+06	2.33184
3.0903e+06	2.33249
3.10814e+06	2.33313
3.12608e+06	2.33378
3.14413e+06	2.33443
3.16228e+06	2.33508
3.18053e+06	2.33573
3.1989e+06	2.33637
3.21736e+06	2.33702
3.23594e+06	2.33767
3.25462e+06	2.33831
3.27341e+06	2.33896
3.2923e+06	2.3396
3.31131e+06	2.34025
3.33043e+06	2.34089
3.34965e+06	2.34153
3.36899e+06	2.34217
3.38844e+06	2.34282
3.408e+06	2.34346
3.42768e+06	2.3441
3.44747e+06	2.34474
3.46737e+06	2.34538
3.48739e+06	2.34602
3.50752e+06	2.34666
3.52777e+06	2.3473
3.54813e+06	2.34793
3.56862e+06	2.34857
3.58922e+06	2.34921
3.60994e+06	2.34984
3.63078e+06	2.35048
3.65174e+06	2.35111
3.67282e+06	2.35175
3.69403e+06	2.35238
3.71535e+06	2.35302
3.7368e+06	2.35365
3.75837e+06	2.35428
3.78007e+06	2.35492
3.80189e+06	2.35555
3.82384e+06	2.35618
3.84592e+06	2.35681
3.86812e+06	2.35744
3.89045e+06	2.35807
3.91291e+06	2.3587
3.9355e+06	2.35933
3.95822e+06	2.35995
3.98107e+06	2.36058
4.00405e+06	2.36121
4.02717e+06	2.36183
4.05042e+06	2.36246
4.0738e+06	2.36309
4.09732e+06	2.36371
4.12098e+06	2.36433
4.14477e+06	2.36496
4.16869e+06	2.36558
4.19276e+06	2.3662
4.21697e+06	2.36683
4.24131e+06	2.36745
4.2658e+06	2.36807
4.29042e+06	2.36869
4.31519e+06	2.36931
4.3401e+06	2.36993
4.36516e+06	2.37055
4.39036e+06	2.37117
4.4157e+06	2.37179
4.4412e+06	2.3724
4.46684e+06	2.37302
4.49262e+06	2.37364
4.51856e+06	2.37425
4.54465e+06	2.37487
4.57088e+06	2.37548
4.59727e+06	2.3761
4.62381e+06	2.37671
4.6505e+06	2.37732
4.67735e+06	2.37794
4.70435e+06	2.37855
4.73151e+06	2.37916
4.75883e+06	2.37977
4.7863e+06	2.38038
4.81393e+06	2.38099
4.84172e+06	2.3816
4.86968e+06	2.38221
4.89779e+06	2.38282
4.92606e+06	2.38343
4.9545e+06	2.38403
4.9831e+06	2.38464
5.01187e+06	2.38525
5.04081e+06	2.38585
5.06991e+06	2.38646
5.09918e+06	2.38706
5.12861e+06	2.38767
5.15822e+06	2.38827
5.188e+06	2.38887
5.21795e+06	2.38948
5.24807e+06	2.39008
5.27837e+06	2.39068
5.30884e+06	2.39128
5.33949e+06	2.39188
5.37032e+06	2.39248
5.40132e+06	2.39308
5.4325e+06	2.39368
5.46387e+06	2.39428
5.49541e+06	2.39488
5.52713e+06	2.39548
5.55904e+06	2.39607
5.59114e+06	2.39667
5.62341e+06	2.39726
5.65588e+06	2.39786
5.68853e+06	2.39845
5.72137e+06	2.39905
5.7544e+06	2.39964
5.78762e+06	2.40023
5.82103e+06	2.40083
5.85464e+06	2.40142
5.88844e+06	2.40201
5.92243e+06	2.4026
5.95662e+06	2.40319
5.99101e+06	2.40378
6.0256e+06	2.40437
6.06038e+06	2.40496
6.09537e+06	2.40555
6.13056e+06	2.40614
6.16595e+06	2.40672
6.20155e+06	2.40731
6.23735e+06	2.4079
6.27336e+06	2.40848
6.30957e+06	2.40907
6.346e+06	2.40965
6.38263e+06	2.41024
6.41948e+06	2.41082
6.45654e+06	2.4114
6.49382e+06	2.41199
6.53131e+06	2.41257
6.56901e+06	2.41315
6.60693e+06	2.41373
6.64508e+06	2.41431
6.68344e+06	2.41489
6.72202e+06	2.41547
6.76083e+06	2.41605
6.79986e+06	2.41663
6.83912e+06	2.41721
6.8786e+06	2.41778
6.91831e+06	2.41836
6.95825e+06	2.41894
6.99842e+06	2.41951
7.03882e+06	2.42009
7.07946e+06	2.42066
7.12033e+06	2.42124
7.16143e+06	2.42181
7.20278e+06	2.42238
7.24436e+06	2.42296
7.28618e+06	2.42353
7.32825e+06	2.4241
7.37055e+06	2.42467
7.4131e+06	2.42524
7.4559e+06	2.42581
7.49894e+06	2.42638
7.54223e+06	2.42695
7.58578e+06	2.42752
7.62957e+06	2.42809
7.67361e+06	2.42865
7.71792e+06	2.42922
7.76247e+06	2.42979
7.80728e+06	2.43035
7.85236e+06	2.43092
7.89769e+06	2.43148
7.94328e+06	2.43148
7.98914e+06	2.43138
8.03526e+06	2.43128
8.08165e+06	2.43119
8.12831e+06	2.43109
8.17523e+06	2.431
8.22243e+06	2.43091
8.2699e+06	2.43081
8.31764e+06	2.43072
8.36566e+06	2.43063
8.41395e+06	2.43054
8.46253e+06	2.43046
8.51138e+06	2.43037
8.56052e+06	2.43028
8.60994e+06	2.4302
8.65964e+06	2.43012
8.70964e+06	2.43003
8.75992e+06	2.42995
8.81049e+06	2.42987
8.86135e+06	2.42979
8.91251e+06	2.42971
8.96396e+06	2.42963
9.01571e+06	2.42956
9.06776e+06	2.42948
9.12011e+06	2.4294
9.17276e+06	2.42933
9.22571e+06	2.42926
9.27897e+06	2.42918
9.33254e+06	2.42911
9.38642e+06	2.42904
9.44061e+06	2.42897
9.49511e+06	2.4289
9.54993e+06	2.42883
9.60506e+06	2.42876
9.66051e+06	2.42869
9.71628e+06	2.42863
9.77237e+06	2.42856
9.82879e+06	2.4285
9.88553e+06	2.42843
9.9426e+06	2.42837
1e+07	2.42831
