Stopping power dEdx from Ionisation for B11[0.0] Z = 5 in Water, process name: ionIoni
E [MeV]	dEdx [MeV/mm]
0.001	22.9099
0.00100577	22.9763
0.00101158	23.0429
0.00101742	23.1097
0.00102329	23.1767
0.0010292	23.2439
0.00103514	23.3113
0.00104112	23.3788
0.00104713	23.4466
0.00105317	23.5146
0.00105925	23.5827
0.00106537	23.6511
0.00107152	23.7196
0.00107771	23.7884
0.00108393	23.8574
0.00109018	23.9265
0.00109648	23.9958
0.00110281	24.0654
0.00110917	24.1351
0.00111558	24.2051
0.00112202	24.2752
0.0011285	24.3456
0.00113501	24.4162
0.00114156	24.4869
0.00114815	24.5579
0.00115478	24.629
0.00116145	24.7004
0.00116815	24.772
0.0011749	24.8438
0.00118168	24.9158
0.0011885	24.988
0.00119536	25.0604
0.00120226	25.133
0.00120921	25.2058
0.00121619	25.2789
0.00122321	25.3521
0.00123027	25.4256
0.00123737	25.4992
0.00124451	25.5731
0.0012517	25.6472
0.00125893	25.7215
0.00126619	25.796
0.0012735	25.8708
0.00128086	25.9457
0.00128825	26.0209
0.00129569	26.0963
0.00130317	26.1719
0.00131069	26.2477
0.00131826	26.3237
0.00132587	26.4
0.00133352	26.4765
0.00134122	26.5532
0.00134896	26.6301
0.00135675	26.7072
0.00136458	26.7846
0.00137246	26.8622
0.00138038	26.94
0.00138835	27.018
0.00139637	27.0963
0.00140443	27.1748
0.00141254	27.2535
0.00142069	27.3324
0.00142889	27.4116
0.00143714	27.491
0.00144544	27.5706
0.00145378	27.6504
0.00146218	27.7305
0.00147062	27.8108
0.00147911	27.8914
0.00148765	27.9722
0.00149624	28.0532
0.00150487	28.1344
0.00151356	28.2159
0.0015223	28.2976
0.00153109	28.3795
0.00153993	28.4617
0.00154882	28.5441
0.00155776	28.6268
0.00156675	28.7097
0.0015758	28.7928
0.00158489	28.8762
0.00159404	28.9598
0.00160325	29.0437
0.0016125	29.1278
0.00162181	29.2121
0.00163117	29.2967
0.00164059	29.3815
0.00165006	29.4666
0.00165959	29.5519
0.00166917	29.6375
0.0016788	29.7233
0.0016885	29.8093
0.00169824	29.8956
0.00170805	29.9822
0.00171791	30.069
0.00172783	30.156
0.0017378	30.2434
0.00174783	30.3309
0.00175792	30.4187
0.00176807	30.5068
0.00177828	30.5951
0.00178855	30.6837
0.00179887	30.7725
0.00180926	30.8616
0.0018197	30.9509
0.00183021	31.0405
0.00184077	31.1303
0.0018514	31.2205
0.00186209	31.3108
0.00187284	31.4015
0.00188365	31.4924
0.00189452	31.5835
0.00190546	31.6749
0.00191646	31.7666
0.00192752	31.8586
0.00193865	31.9508
0.00194984	32.0432
0.0019611	32.136
0.00197242	32.229
0.00198381	32.3223
0.00199526	32.4158
0.00200678	32.5096
0.00201837	32.6037
0.00203002	32.6981
0.00204174	32.7927
0.00205353	32.8876
0.00206538	32.9828
0.0020773	33.0783
0.0020893	33.174
0.00210136	33.27
0.00211349	33.3663
0.00212569	33.4628
0.00213796	33.5597
0.0021503	33.6568
0.00216272	33.7542
0.0021752	33.8518
0.00218776	33.9498
0.00220039	34.048
0.00221309	34.1466
0.00222587	34.2454
0.00223872	34.3445
0.00225165	34.4438
0.00226464	34.5435
0.00227772	34.6434
0.00229087	34.7437
0.00230409	34.8442
0.00231739	34.945
0.00233077	35.0461
0.00234423	35.1475
0.00235776	35.2492
0.00237137	35.3512
0.00238506	35.4535
0.00239883	35.5561
0.00241268	35.6589
0.00242661	35.7621
0.00244062	35.8656
0.00245471	35.9693
0.00246888	36.0734
0.00248313	36.1777
0.00249747	36.2824
0.00251189	36.3874
0.00252639	36.4926
0.00254097	36.5982
0.00255564	36.7041
0.0025704	36.8102
0.00258523	36.9167
0.00260016	37.0235
0.00261517	37.1306
0.00263027	37.238
0.00264545	37.3457
0.00266073	37.4538
0.00267609	37.5621
0.00269153	37.6708
0.00270707	37.7797
0.0027227	37.889
0.00273842	37.9986
0.00275423	38.1085
0.00277013	38.2187
0.00278612	38.3293
0.00280221	38.4401
0.00281838	38.5513
0.00283465	38.6628
0.00285102	38.7746
0.00286748	38.8868
0.00288403	38.9992
0.00290068	39.112
0.00291743	39.2252
0.00293427	39.3386
0.00295121	39.4524
0.00296825	39.5665
0.00298538	39.6809
0.00300262	39.7957
0.00301995	39.9107
0.00303739	40.0262
0.00305492	40.1419
0.00307256	40.258
0.0030903	40.3744
0.00310814	40.4912
0.00312608	40.6083
0.00314413	40.7257
0.00316228	40.8435
0.00318053	40.9616
0.0031989	41.08
0.00321736	41.1988
0.00323594	41.318
0.00325462	41.4374
0.00327341	41.5573
0.0032923	41.6774
0.00331131	41.7979
0.00333043	41.9188
0.00334965	42.04
0.00336899	42.1616
0.00338844	42.2835
0.003408	42.4057
0.00342768	42.5283
0.00344747	42.6513
0.00346737	42.7746
0.00348739	42.8983
0.00350752	43.0223
0.00352777	43.1467
0.00354813	43.2715
0.00356862	43.3966
0.00358922	43.522
0.00360994	43.6479
0.00363078	43.7741
0.00365174	43.9006
0.00367282	44.0275
0.00369403	44.1548
0.00371535	44.2825
0.0037368	44.4105
0.00375837	44.5389
0.00378007	44.6677
0.00380189	44.7968
0.00382384	44.9263
0.00384592	45.0562
0.00386812	45.1864
0.00389045	45.3171
0.00391291	45.4481
0.0039355	45.5794
0.00395822	45.7112
0.00398107	45.8433
0.00400405	45.9759
0.00402717	46.1088
0.00405042	46.242
0.0040738	46.3757
0.00409732	46.5098
0.00412098	46.6442
0.00414477	46.779
0.00416869	46.9143
0.00419276	47.0499
0.00421697	47.1859
0.00424131	47.3223
0.0042658	47.459
0.00429042	47.5962
0.00431519	47.7338
0.0043401	47.8718
0.00436516	48.0101
0.00439036	48.1489
0.0044157	48.2881
0.0044412	48.4276
0.00446684	48.5676
0.00449262	48.708
0.00451856	48.8487
0.00454465	48.9899
0.00457088	49.1315
0.00459727	49.2735
0.00462381	49.4159
0.0046505	49.5587
0.00467735	49.702
0.00470435	49.8456
0.00473151	49.9897
0.00475883	50.1341
0.0047863	50.279
0.00481393	50.4243
0.00484172	50.5701
0.00486968	50.7162
0.00489779	50.8628
0.00492606	51.0098
0.0049545	51.1572
0.0049831	51.305
0.00501187	51.4533
0.00504081	51.602
0.00506991	51.7511
0.00509918	51.9006
0.00512861	52.0506
0.00515822	52.201
0.005188	52.3519
0.00521795	52.5031
0.00524807	52.6549
0.00527837	52.807
0.00530884	52.9596
0.00533949	53.2454
0.00537032	53.3989
0.00540132	53.5528
0.0054325	53.7071
0.00546387	53.8619
0.00549541	54.0172
0.00552713	54.1729
0.00555904	54.329
0.00559114	54.4856
0.00562341	54.6427
0.00565588	54.8002
0.00568853	54.9581
0.00572137	55.1165
0.0057544	55.2754
0.00578762	55.4347
0.00582103	55.5945
0.00585464	55.7548
0.00588844	55.9155
0.00592243	56.0766
0.00595662	56.2383
0.00599101	56.4004
0.0060256	56.5629
0.00606038	56.726
0.00609537	56.8895
0.00613056	57.0534
0.00616595	57.2179
0.00620155	57.3828
0.00623735	57.5482
0.00627336	57.7141
0.00630957	57.8805
0.006346	58.0473
0.00638263	58.2146
0.00641948	58.3824
0.00645654	58.5507
0.00649382	58.7194
0.00653131	58.8887
0.00656901	59.0584
0.00660693	59.2287
0.00664508	59.3994
0.00668344	59.5706
0.00672202	59.7423
0.00676083	59.9145
0.00679986	60.0872
0.00683912	60.2604
0.0068786	60.4341
0.00691831	60.6083
0.00695825	60.783
0.00699842	60.9582
0.00703882	61.1339
0.00707946	61.3101
0.00712033	61.4868
0.00716143	61.664
0.00720278	61.8418
0.00724436	62.02
0.00728618	62.1988
0.00732825	62.3781
0.00737055	62.5579
0.0074131	62.7382
0.0074559	62.919
0.00749894	63.1004
0.00754223	63.2822
0.00758578	63.4647
0.00762957	63.6476
0.00767361	63.831
0.00771792	64.015
0.00776247	64.1995
0.00780728	64.3846
0.00785236	64.5702
0.00789769	64.7563
0.00794328	64.9429
0.00798914	65.1301
0.00803526	65.3179
0.00808165	65.5061
0.00812831	65.6949
0.00817523	65.8843
0.00822243	66.0742
0.0082699	66.2646
0.00831764	66.4556
0.00836566	66.6472
0.00841395	66.8393
0.00846253	67.032
0.00851138	67.2252
0.00856052	67.4189
0.00860994	67.6133
0.00865964	67.8082
0.00870964	68.0036
0.00875992	68.1996
0.00881049	68.3962
0.00886135	68.5933
0.00891251	68.791
0.00896396	68.9893
0.00901571	69.1882
0.00906776	69.3876
0.00912011	69.5876
0.00917276	69.7882
0.00922571	69.9893
0.00927897	70.1911
0.00933254	70.3934
0.00938642	70.5963
0.00944061	70.7998
0.00949511	71.0039
0.00954993	71.2085
0.00960506	71.4138
0.00966051	71.6196
0.00971628	71.826
0.00977237	72.0331
0.00982879	72.2407
0.00988553	72.4489
0.0099426	72.6577
0.01	72.8672
0.0100577	73.0772
0.0101158	73.2878
0.0101742	73.4991
0.0102329	73.7109
0.010292	73.9234
0.0103514	74.1365
0.0104112	74.3502
0.0104713	74.5645
0.0105317	74.7794
0.0105925	74.9949
0.0106537	75.2111
0.0107152	75.4279
0.0107771	75.6453
0.0108393	75.8633
0.0109018	76.082
0.0109648	76.3013
0.0110281	76.5212
0.0110917	76.7418
0.0111558	76.963
0.0112202	77.1848
0.011285	77.4073
0.0113501	77.6304
0.0114156	77.8542
0.0114815	78.0786
0.0115478	78.3036
0.0116145	78.5293
0.0116815	78.7557
0.011749	78.9827
0.0118168	79.2103
0.011885	79.4387
0.0119536	79.6676
0.0120226	79.8973
0.0120921	80.1276
0.0121619	80.3585
0.0122321	80.5901
0.0123027	80.8224
0.0123737	81.0554
0.0124451	81.289
0.012517	81.5233
0.0125893	81.7583
0.0126619	81.994
0.012735	82.2303
0.0128086	82.4673
0.0128825	82.705
0.0129569	82.9434
0.0130317	83.1825
0.0131069	83.4223
0.0131826	83.6627
0.0132587	83.9039
0.0133352	84.1457
0.0134122	84.3882
0.0134896	84.6315
0.0135675	84.8754
0.0136458	85.1201
0.0137246	85.3654
0.0138038	85.6115
0.0138835	85.8582
0.0139637	86.1057
0.0140443	86.3539
0.0141254	86.6028
0.0142069	86.8524
0.0142889	87.1028
0.0143714	87.3538
0.0144544	87.6056
0.0145378	87.8581
0.0146218	88.1114
0.0147062	88.3653
0.0147911	88.62
0.0148765	88.8755
0.0149624	89.1316
0.0150487	89.3886
0.0151356	89.6462
0.015223	89.9046
0.0153109	90.1637
0.0153993	90.4236
0.0154882	90.6843
0.0155776	90.9456
0.0156675	91.2078
0.015758	91.4707
0.0158489	91.7343
0.0159404	91.9987
0.0160325	92.2639
0.016125	92.5299
0.0162181	92.7966
0.0163117	93.064
0.0164059	93.3323
0.0165006	93.6013
0.0165959	93.8711
0.0166917	94.1417
0.016788	94.413
0.016885	94.6852
0.0169824	94.9581
0.0170805	95.2318
0.0171791	95.5063
0.0172783	95.7816
0.017378	96.0576
0.0174783	96.3345
0.0175792	96.6122
0.0176807	96.8907
0.0177828	97.1699
0.0178855	97.45
0.0179887	97.7309
0.0180926	98.0126
0.018197	98.2951
0.0183021	98.5784
0.0184077	98.8626
0.018514	99.1475
0.0186209	99.4333
0.0187284	99.7199
0.0188365	100.007
0.0189452	100.296
0.0190546	100.585
0.0191646	100.875
0.0192752	101.165
0.0193865	101.457
0.0194984	101.749
0.019611	102.043
0.0197242	102.337
0.0198381	102.632
0.0199526	102.928
0.0200678	103.224
0.0201837	103.522
0.0203002	103.82
0.0204174	104.119
0.0205353	104.42
0.0206538	104.721
0.020773	105.022
0.020893	105.325
0.0210136	105.629
0.0211349	105.933
0.0212569	106.238
0.0213796	106.545
0.021503	106.852
0.0216272	107.16
0.021752	107.469
0.0218776	107.778
0.0220039	108.089
0.0221309	108.401
0.0222587	108.713
0.0223872	109.026
0.0225165	109.341
0.0226464	109.656
0.0227772	109.972
0.0229087	110.289
0.0230409	110.607
0.0231739	110.926
0.0233077	111.245
0.0234423	111.566
0.0235776	111.888
0.0237137	112.21
0.0238506	112.534
0.0239883	112.858
0.0241268	113.183
0.0242661	113.509
0.0244062	113.837
0.0245471	114.165
0.0246888	114.494
0.0248313	114.824
0.0249747	115.155
0.0251189	115.487
0.0252639	115.82
0.0254097	116.153
0.0255564	116.488
0.025704	116.824
0.0258523	117.161
0.0260016	117.498
0.0261517	117.837
0.0263027	118.177
0.0264545	118.517
0.0266073	118.859
0.0267609	119.202
0.0269153	119.545
0.0270707	119.89
0.027227	120.235
0.0273842	120.582
0.0275423	120.929
0.0277013	121.278
0.0278612	121.628
0.0280221	121.978
0.0281838	122.33
0.0283465	122.682
0.0285102	123.036
0.0286748	123.391
0.0288403	123.746
0.0290068	124.103
0.0291743	124.461
0.0293427	124.819
0.0295121	125.179
0.0296825	125.54
0.0298538	125.902
0.0300262	126.265
0.0301995	126.629
0.0303739	126.994
0.0305492	127.36
0.0307256	127.727
0.030903	128.095
0.0310814	128.464
0.0312608	128.834
0.0314413	129.206
0.0316228	129.578
0.0318053	129.952
0.031989	130.326
0.0321736	130.702
0.0323594	131.079
0.0325462	131.456
0.0327341	131.835
0.032923	132.215
0.0331131	132.596
0.0333043	132.979
0.0334965	133.362
0.0336899	133.746
0.0338844	134.132
0.03408	134.518
0.0342768	134.906
0.0344747	135.295
0.0346737	135.685
0.0348739	136.076
0.0350752	136.468
0.0352777	136.862
0.0354813	137.256
0.0356862	137.652
0.0358922	138.049
0.0360994	138.446
0.0363078	138.846
0.0365174	139.246
0.0367282	139.647
0.0369403	140.05
0.0371535	140.453
0.037368	140.858
0.0375837	141.264
0.0378007	141.671
0.0380189	142.08
0.0382384	142.489
0.0384592	142.9
0.0386812	143.312
0.0389045	143.725
0.0391291	144.139
0.039355	144.555
0.0395822	144.971
0.0398107	145.389
0.0400405	145.808
0.0402717	146.228
0.0405042	146.65
0.040738	147.073
0.0409732	147.497
0.0412098	147.922
0.0414477	148.348
0.0416869	148.776
0.0419276	149.204
0.0421697	149.635
0.0424131	150.066
0.042658	150.498
0.0429042	150.932
0.0431519	151.367
0.043401	151.804
0.0436516	152.241
0.0439036	152.68
0.044157	153.12
0.044412	153.561
0.0446684	154.004
0.0449262	154.448
0.0451856	154.893
0.0454465	155.34
0.0457088	155.787
0.0459727	156.236
0.0462381	156.687
0.046505	157.138
0.0467735	157.591
0.0470435	158.045
0.0473151	158.501
0.0475883	158.958
0.047863	159.416
0.0481393	159.875
0.0484172	160.336
0.0486968	160.798
0.0489779	161.262
0.0492606	161.727
0.049545	162.193
0.049831	162.66
0.0501187	163.129
0.0504081	163.599
0.0506991	164.071
0.0509918	164.544
0.0512861	165.018
0.0515822	165.494
0.05188	165.971
0.0521795	166.449
0.0524807	166.929
0.0527837	167.41
0.0530884	167.893
0.0533949	168.377
0.0537032	168.862
0.0540132	169.349
0.054325	169.837
0.0546387	170.326
0.0549541	170.817
0.0552713	171.31
0.0555904	171.803
0.0559114	172.299
0.0562341	172.795
0.0565588	173.293
0.0568853	173.793
0.0572137	174.294
0.057544	174.796
0.0578762	175.3
0.0582103	175.805
0.0585464	176.312
0.0588844	176.82
0.0592243	177.33
0.0595662	177.841
0.0599101	178.354
0.060256	178.868
0.0606038	179.383
0.0609537	179.9
0.0613056	180.419
0.0616595	180.939
0.0620155	181.46
0.0623735	181.983
0.0627336	182.508
0.0630957	183.034
0.06346	183.562
0.0638263	184.091
0.0641948	184.621
0.0645654	185.153
0.0649382	185.687
0.0653131	186.222
0.0656901	186.759
0.0660693	187.297
0.0664508	187.837
0.0668344	188.379
0.0672202	188.922
0.0676083	189.466
0.0679986	190.012
0.0683912	190.56
0.068786	191.109
0.0691831	191.66
0.0695825	192.213
0.0699842	192.767
0.0703882	193.322
0.0707946	193.88
0.0712033	194.438
0.0716143	194.999
0.0720278	195.561
0.0724436	196.125
0.0728618	196.69
0.0732825	197.257
0.0737055	197.825
0.074131	198.396
0.074559	198.967
0.0749894	199.541
0.0754223	200.116
0.0758578	200.693
0.0762957	201.271
0.0767361	201.851
0.0771792	202.433
0.0776247	203.017
0.0780728	203.602
0.0785236	204.189
0.0789769	204.777
0.0794328	205.368
0.0798914	205.96
0.0803526	206.553
0.0808165	207.149
0.0812831	207.746
0.0817523	208.344
0.0822243	208.945
0.082699	209.547
0.0831764	210.151
0.0836566	210.757
0.0841395	211.364
0.0846253	211.974
0.0851138	212.585
0.0856052	213.197
0.0860994	213.812
0.0865964	214.428
0.0870964	215.046
0.0875992	215.666
0.0881049	216.288
0.0886135	216.911
0.0891251	217.536
0.0896396	218.163
0.0901571	218.792
0.0906776	219.423
0.0912011	220.055
0.0917276	220.69
0.0922571	221.326
0.0927897	221.964
0.0933254	222.603
0.0938642	223.245
0.0944061	223.889
0.0949511	224.534
0.0954993	225.181
0.0960506	225.83
0.0966051	226.481
0.0971628	227.134
0.0977237	227.789
0.0982879	228.445
0.0988553	229.104
0.099426	229.764
0.1	230.426
0.100577	231.09
0.101158	231.756
0.101742	232.425
0.102329	233.094
0.10292	233.766
0.103514	234.44
0.104112	235.116
0.104713	235.794
0.105317	236.473
0.105925	237.155
0.106537	237.838
0.107152	238.524
0.107771	239.211
0.108393	239.901
0.109018	240.592
0.109648	241.286
0.110281	241.981
0.110917	242.679
0.111558	243.378
0.112202	244.08
0.11285	244.783
0.113501	245.489
0.114156	246.197
0.114815	246.906
0.115478	247.618
0.116145	248.332
0.116815	249.047
0.11749	249.765
0.118168	250.485
0.11885	251.207
0.119536	251.931
0.120226	252.657
0.120921	253.386
0.121619	254.116
0.122321	254.848
0.123027	255.583
0.123737	256.32
0.124451	257.058
0.12517	257.799
0.125893	258.542
0.126619	259.288
0.12735	260.035
0.128086	260.785
0.128825	261.536
0.129569	262.29
0.130317	263.046
0.131069	263.804
0.131826	264.565
0.132587	265.327
0.133352	266.092
0.134122	266.859
0.134896	267.628
0.135675	268.4
0.136458	269.173
0.137246	269.949
0.138038	270.727
0.138835	271.508
0.139637	272.29
0.140443	273.075
0.141254	273.862
0.142069	274.651
0.142889	275.443
0.143714	276.237
0.144544	277.033
0.145378	277.832
0.146218	278.633
0.147062	279.436
0.147911	280.241
0.148765	281.049
0.149624	281.859
0.150487	282.671
0.151356	283.486
0.15223	284.303
0.153109	285.123
0.153993	285.945
0.154882	286.769
0.155776	287.595
0.156675	288.424
0.15758	289.256
0.158489	290.089
0.159404	290.926
0.160325	291.764
0.16125	292.605
0.162181	293.449
0.163117	294.294
0.164059	295.143
0.165006	295.993
0.165959	296.846
0.166917	297.702
0.16788	298.56
0.16885	299.421
0.169824	300.284
0.170805	301.149
0.171791	302.017
0.172783	302.888
0.17378	303.761
0.174783	304.636
0.175792	305.515
0.176807	306.395
0.177828	307.278
0.178855	308.164
0.179887	309.052
0.180926	309.943
0.18197	310.836
0.183021	311.732
0.184077	312.631
0.18514	313.532
0.186209	314.436
0.187284	315.342
0.188365	316.251
0.189452	317.163
0.190546	318.077
0.191646	318.994
0.192752	319.913
0.193865	320.835
0.194984	321.76
0.19611	322.687
0.197242	323.617
0.198381	324.55
0.199526	325.486
0.200678	326.424
0.201837	327.365
0.203002	328.308
0.204174	329.255
0.205353	330.204
0.206538	331.155
0.20773	332.11
0.20893	333.067
0.210136	334.027
0.211349	334.99
0.212569	335.956
0.213796	336.924
0.21503	337.895
0.216272	338.869
0.21752	339.846
0.218776	340.825
0.220039	341.808
0.221309	342.793
0.222587	343.781
0.223872	344.772
0.225165	345.766
0.226464	346.762
0.227772	347.762
0.229087	348.764
0.230409	349.769
0.231739	350.778
0.233077	351.789
0.234423	352.803
0.235776	353.82
0.237137	354.839
0.238506	355.862
0.239883	356.888
0.241268	357.917
0.242661	358.948
0.244062	359.983
0.245471	361.021
0.246888	362.061
0.248313	363.105
0.249747	364.151
0.251189	365.201
0.252639	366.254
0.254097	367.309
0.255564	368.368
0.25704	369.43
0.258523	370.495
0.260016	371.563
0.261517	372.634
0.263027	373.708
0.264545	374.785
0.266073	375.865
0.267609	376.948
0.269153	378.035
0.270707	379.125
0.27227	380.217
0.273842	381.313
0.275423	382.404
0.277013	383.476
0.278612	384.553
0.280221	385.636
0.281838	386.724
0.283465	387.818
0.285102	388.917
0.286748	390.022
0.288403	391.132
0.290068	392.248
0.291743	393.369
0.293427	394.496
0.295121	395.628
0.296825	396.766
0.298538	397.909
0.300262	399.058
0.301995	400.212
0.303739	401.372
0.305492	402.537
0.307256	403.707
0.30903	404.883
0.310814	406.065
0.312608	407.252
0.314413	408.444
0.316228	409.642
0.318053	410.846
0.31989	412.054
0.321736	413.269
0.323594	414.488
0.325462	415.713
0.327341	416.943
0.32923	418.179
0.331131	419.365
0.333043	420.52
0.334965	421.679
0.336899	422.843
0.338844	424.012
0.3408	425.185
0.342768	426.363
0.344747	427.546
0.346737	428.733
0.348739	429.925
0.350752	431.121
0.352777	432.322
0.354813	433.527
0.356862	434.737
0.358922	435.951
0.360994	437.169
0.363078	438.392
0.365174	439.619
0.367282	440.85
0.369403	442.085
0.371535	443.325
0.37368	444.568
0.375837	445.815
0.378007	447.067
0.380189	448.322
0.382384	449.581
0.384592	450.843
0.386812	452.11
0.389045	453.38
0.391291	454.654
0.39355	455.931
0.395822	457.211
0.398107	458.495
0.400405	459.782
0.402717	461.072
0.405042	462.366
0.40738	463.662
0.409732	464.961
0.412098	466.263
0.414477	467.568
0.416869	468.876
0.419276	470.186
0.421697	471.498
0.424131	472.813
0.42658	474.13
0.429042	475.449
0.431519	476.771
0.43401	478.094
0.436516	479.418
0.439036	480.745
0.44157	482.058
0.44412	483.362
0.446684	484.669
0.449262	485.976
0.451856	487.285
0.454465	488.594
0.457088	489.905
0.459727	491.218
0.462381	492.531
0.46505	493.845
0.467735	495.161
0.470435	496.478
0.473151	497.796
0.475883	499.114
0.47863	500.434
0.481393	501.755
0.484172	503.077
0.486968	504.4
0.489779	505.724
0.492606	507.048
0.49545	508.374
0.49831	509.701
0.501187	511.028
0.504081	512.356
0.506991	513.686
0.509918	515.016
0.512861	516.347
0.515822	517.678
0.5188	519.011
0.521795	520.345
0.524807	521.679
0.527837	523.014
0.530884	524.35
0.533949	525.686
0.537032	527.024
0.540132	528.362
0.54325	529.701
0.546387	531.041
0.549541	532.381
0.552713	533.722
0.555904	535.063
0.559114	536.404
0.562341	537.747
0.565588	539.09
0.568853	540.433
0.572137	541.777
0.57544	543.121
0.578762	544.466
0.582103	545.811
0.585464	547.156
0.588844	548.501
0.592243	549.847
0.595662	551.192
0.599101	552.538
0.60256	553.883
0.606038	555.228
0.609537	556.574
0.613056	557.918
0.616595	559.263
0.620155	560.607
0.623735	561.951
0.627336	563.295
0.630957	564.637
0.6346	565.979
0.638263	567.321
0.641948	568.662
0.645654	570.001
0.649382	571.34
0.653131	572.678
0.656901	574.015
0.660693	575.351
0.664508	576.686
0.668344	578.019
0.672202	579.352
0.676083	580.682
0.679986	582.012
0.683912	583.34
0.68786	584.666
0.691831	585.991
0.695825	587.314
0.699842	588.636
0.703882	589.955
0.707946	591.273
0.712033	592.589
0.716143	593.903
0.720278	595.214
0.724436	596.524
0.728618	597.832
0.732825	599.137
0.737055	600.44
0.74131	601.74
0.74559	603.039
0.749894	604.334
0.754223	605.628
0.758578	606.918
0.762957	608.206
0.767361	609.491
0.771792	610.773
0.776247	612.053
0.780728	613.329
0.785236	614.603
0.789769	615.873
0.794328	617.141
0.798914	618.405
0.803526	619.665
0.808165	620.923
0.812831	622.177
0.817523	623.427
0.822243	624.674
0.82699	625.918
0.831764	627.157
0.836566	628.393
0.841395	629.625
0.846253	630.853
0.851138	632.078
0.856052	633.298
0.860994	634.514
0.865964	635.726
0.870964	636.933
0.875992	638.137
0.881049	639.336
0.886135	640.53
0.891251	641.72
0.896396	642.906
0.901571	644.087
0.906776	645.263
0.912011	646.434
0.917276	647.6
0.922571	648.761
0.927897	649.917
0.933254	651.068
0.938642	652.213
0.944061	653.353
0.949511	654.488
0.954993	655.617
0.960506	656.74
0.966051	657.858
0.971628	658.97
0.977237	660.075
0.982879	661.175
0.988553	662.269
0.99426	663.356
1	664.438
1.00577	665.512
1.01158	666.581
1.01742	667.643
1.02329	668.699
1.0292	669.748
1.03514	670.79
1.04112	671.826
1.04713	672.855
1.05317	673.877
1.05925	674.893
1.06537	675.901
1.07152	676.903
1.07771	677.898
1.08393	678.886
1.09018	679.867
1.09648	680.841
1.10281	681.809
1.10917	682.772
1.11558	683.727
1.12202	684.675
1.1285	685.616
1.13501	686.549
1.14156	687.475
1.14815	688.394
1.15478	689.304
1.16145	690.207
1.16815	691.102
1.1749	691.99
1.18168	692.869
1.1885	693.74
1.19536	694.603
1.20226	695.458
1.20921	696.305
1.21619	697.143
1.22321	697.973
1.23027	698.794
1.23737	699.607
1.24451	700.411
1.2517	701.207
1.25893	701.994
1.26619	702.772
1.2735	703.541
1.28086	704.302
1.28825	705.053
1.29569	705.796
1.30317	706.529
1.31069	707.254
1.31826	707.969
1.32587	708.675
1.33352	709.372
1.34122	710.06
1.34896	710.738
1.35675	711.407
1.36458	712.067
1.37246	712.718
1.38038	713.359
1.38835	713.991
1.39637	714.613
1.40443	715.227
1.41254	715.83
1.42069	716.425
1.42889	717.01
1.43714	717.586
1.44544	718.152
1.45378	718.71
1.46218	719.258
1.47062	719.796
1.47911	720.326
1.48765	720.846
1.49624	721.357
1.50487	721.86
1.51356	722.353
1.5223	722.837
1.53109	723.313
1.53993	723.779
1.54882	724.237
1.55776	724.687
1.56675	725.128
1.5758	725.56
1.58489	725.984
1.59404	726.401
1.60325	726.809
1.6125	727.209
1.62181	727.601
1.63117	727.986
1.64059	728.363
1.65006	728.733
1.65959	729.067
1.66917	729.393
1.6788	729.712
1.6885	730.023
1.69824	730.327
1.70805	730.624
1.71791	730.912
1.72783	731.193
1.7378	731.467
1.74783	731.732
1.75792	731.99
1.76807	732.24
1.77828	732.482
1.78855	732.716
1.79887	732.941
1.80926	733.159
1.8197	733.369
1.83021	733.57
1.84077	733.763
1.8514	733.948
1.86209	734.125
1.87284	734.293
1.88365	734.453
1.89452	734.605
1.90546	734.748
1.91646	734.883
1.92752	735.009
1.93865	735.127
1.94984	735.236
1.9611	735.337
1.97242	735.429
1.98381	735.513
1.99526	735.588
2.00678	735.654
2.01837	735.712
2.03002	735.762
2.04174	735.803
2.05353	735.835
2.06538	735.858
2.0773	735.874
2.0893	735.88
2.10136	735.878
2.11349	735.868
2.12569	735.849
2.13796	735.822
2.1503	735.787
2.16272	735.743
2.1752	735.691
2.18776	735.63
2.20039	735.562
2.21309	735.491
2.22587	735.411
2.23872	735.324
2.25165	735.228
2.26464	735.124
2.27772	735.013
2.29087	734.892
2.30409	734.764
2.31739	734.628
2.33077	734.483
2.34423	734.33
2.35776	734.17
2.37137	734.001
2.38506	733.824
2.39883	733.638
2.41268	733.445
2.42661	733.244
2.44062	733.034
2.45471	732.817
2.46888	732.592
2.48313	732.358
2.49747	732.117
2.51189	731.868
2.52639	731.611
2.54097	731.347
2.55564	731.075
2.5704	730.795
2.58523	730.508
2.60016	730.213
2.61517	729.911
2.63027	729.601
2.64545	729.284
2.66073	728.961
2.67609	728.63
2.69153	728.292
2.70707	727.948
2.7227	727.597
2.73842	727.239
2.75423	726.875
2.77013	726.505
2.78612	726.128
2.80221	725.746
2.81838	725.356
2.83465	724.961
2.85102	724.559
2.86748	724.151
2.88403	723.736
2.90068	723.316
2.91743	722.889
2.93427	722.455
2.95121	722.016
2.96825	721.57
2.98538	721.117
3.00262	720.659
3.01995	720.194
3.03739	719.724
3.05492	719.247
3.07256	718.763
3.0903	718.274
3.10814	717.779
3.12608	717.278
3.14413	716.77
3.16228	716.257
3.18053	715.738
3.1989	715.213
3.21736	714.682
3.23594	714.145
3.25462	713.603
3.27341	713.055
3.2923	712.502
3.31131	711.944
3.33043	711.38
3.34965	710.811
3.36899	710.237
3.38844	709.657
3.408	709.071
3.42768	708.48
3.44747	707.884
3.46737	707.282
3.48739	706.674
3.50752	706.061
3.52777	705.443
3.54813	704.819
3.56862	704.189
3.58922	703.554
3.60994	702.914
3.63078	702.268
3.65174	701.616
3.67282	700.959
3.69403	700.296
3.71535	699.628
3.7368	698.955
3.75837	698.276
3.78007	697.591
3.80189	696.901
3.82384	696.206
3.84592	695.505
3.86812	694.799
3.89045	694.088
3.91291	693.371
3.9355	692.649
3.95822	691.922
3.98107	691.189
4.00405	690.452
4.02717	689.709
4.05042	688.961
4.0738	688.208
4.09732	687.45
4.12098	686.687
4.14477	685.919
4.16869	685.146
4.19276	684.368
4.21697	683.586
4.24131	682.799
4.2658	682.007
4.29042	681.211
4.31519	680.41
4.3401	679.605
4.36516	678.795
4.39036	677.981
4.4157	677.162
4.4412	676.339
4.46684	675.511
4.49262	674.679
4.51856	673.843
4.54465	673.003
4.57088	672.159
4.59727	671.31
4.62381	670.458
4.6505	669.601
4.67735	668.74
4.70435	667.875
4.73151	667.006
4.75883	666.133
4.7863	665.256
4.81393	664.374
4.84172	663.489
4.86968	662.599
4.89779	661.706
4.92606	660.809
4.9545	659.907
4.9831	659.002
5.01187	658.092
5.04081	657.179
5.06991	656.262
5.09918	655.341
5.12861	654.416
5.15822	653.487
5.188	652.554
5.21795	651.618
5.24807	650.678
5.27837	649.734
5.30884	648.786
5.33949	647.835
5.37032	646.88
5.40132	645.922
5.4325	644.96
5.46387	643.994
5.49541	643.025
5.52713	642.053
5.55904	641.077
5.59114	640.097
5.62341	639.114
5.65588	638.128
5.68853	637.139
5.72137	636.146
5.7544	635.149
5.78762	634.15
5.82103	633.147
5.85464	632.141
5.88844	631.131
5.92243	630.119
5.95662	629.103
5.99101	628.084
6.0256	627.062
6.06038	626.036
6.09537	625.008
6.13056	623.976
6.16595	622.941
6.20155	621.903
6.23735	620.862
6.27336	619.819
6.30957	618.772
6.346	617.722
6.38263	616.669
6.41948	615.614
6.45654	614.555
6.49382	613.494
6.53131	612.43
6.56901	611.363
6.60693	610.294
6.64508	609.221
6.68344	608.146
6.72202	607.069
6.76083	605.988
6.79986	604.905
6.83912	603.82
6.8786	602.731
6.91831	601.64
6.95825	600.546
6.99842	599.45
7.03882	598.351
7.07946	597.249
7.12033	596.145
7.16143	595.038
7.20278	593.928
7.24436	592.816
7.28618	591.701
7.32825	590.583
7.37055	589.463
7.4131	588.34
7.4559	587.214
7.49894	586.086
7.54223	584.955
7.58578	583.821
7.62957	582.685
7.67361	581.545
7.71792	580.404
7.76247	579.259
7.80728	578.112
7.85236	576.963
7.89769	575.811
7.94328	574.656
7.98914	573.499
8.03526	572.34
8.08165	571.178
8.12831	570.015
8.17523	568.849
8.22243	567.681
8.2699	566.511
8.31764	565.339
8.36566	564.165
8.41395	562.989
8.46253	561.812
8.51138	560.633
8.56052	559.452
8.60994	558.27
8.65964	557.087
8.70964	555.902
8.75992	554.716
8.81049	553.528
8.86135	552.34
8.91251	551.151
8.96396	549.96
9.01571	548.768
9.06776	547.575
9.12011	546.381
9.17276	545.185
9.22571	543.988
9.27897	542.79
9.33254	541.591
9.38642	540.39
9.44061	539.188
9.49511	537.984
9.54993	536.778
9.60506	535.571
9.66051	534.363
9.71628	533.153
9.77237	531.941
9.82879	530.727
9.88553	529.511
9.9426	528.294
10	527.074
10.0577	525.853
10.1158	524.63
10.1742	523.405
10.2329	522.179
10.292	520.951
10.3514	519.721
10.4112	518.49
10.4713	517.257
10.5317	516.024
10.5925	514.788
10.6537	513.552
10.7152	512.314
10.7771	511.075
10.8393	509.835
10.9018	508.594
10.9648	507.353
11.0281	506.11
11.0917	504.865
11.1558	503.62
11.2202	502.374
11.285	501.128
11.3501	499.88
11.4156	498.633
11.4815	497.384
11.5478	496.135
11.6145	494.886
11.6815	493.636
11.749	492.385
11.8168	491.134
11.885	489.883
11.9536	488.631
12.0226	487.379
12.0921	486.126
12.1619	484.873
12.2321	483.62
12.3027	482.367
12.3737	481.113
12.4451	479.86
12.517	478.606
12.5893	477.352
12.6619	476.097
12.735	474.843
12.8086	473.589
12.8825	472.334
12.9569	471.08
13.0317	469.825
13.1069	468.571
13.1826	467.316
13.2587	466.062
13.3352	464.807
13.4122	463.553
13.4896	462.299
13.5675	461.045
13.6458	459.791
13.7246	458.537
13.8038	457.284
13.8835	456.03
13.9637	454.777
14.0443	453.524
14.1254	452.271
14.2069	451.018
14.2889	449.766
14.3714	448.513
14.4544	447.261
14.5378	446.01
14.6218	444.758
14.7062	443.507
14.7911	442.255
14.8765	441.005
14.9624	439.754
15.0487	438.503
15.1356	437.253
15.223	436.003
15.3109	434.753
15.3993	433.503
15.4882	432.253
15.5776	431.003
15.6675	429.754
15.758	428.504
15.8489	427.255
15.9404	426.005
16.0325	424.756
16.125	423.506
16.2181	422.257
16.3117	421.007
16.4059	419.757
16.5006	418.507
16.5959	417.272
16.6917	416.038
16.788	414.803
16.885	413.568
16.9824	412.333
17.0805	411.098
17.1791	409.863
17.2783	408.628
17.378	407.394
17.4783	406.159
17.5792	404.925
17.6807	403.691
17.7828	402.458
17.8855	401.225
17.9887	399.992
18.0926	398.76
18.197	397.528
18.3021	396.297
18.4077	395.066
18.514	393.836
18.6209	392.607
18.7284	391.379
18.8365	390.151
18.9452	388.924
19.0546	387.698
19.1646	386.472
19.2752	385.248
19.3865	384.024
19.4984	382.802
19.611	381.581
19.7242	380.36
19.8381	379.141
19.9526	377.923
20.0678	376.706
20.1837	375.491
20.3002	374.276
20.4174	373.063
20.5353	371.852
20.6538	370.641
20.773	369.432
20.893	368.225
21.0136	367.019
21.1349	365.814
21.2569	364.611
21.3796	363.41
21.503	362.21
21.6272	361.012
21.752	359.815
21.8776	358.62
22.0039	357.427
22.1309	356.231
22.2587	355.037
22.3872	353.845
22.5165	352.654
22.6464	351.465
22.7772	350.279
22.9087	349.094
23.0409	347.911
23.1739	346.729
23.3077	345.55
23.4423	344.373
23.5776	343.197
23.7137	342.024
23.8506	340.853
23.9883	339.683
24.1268	338.516
24.2661	337.351
24.4062	336.188
24.5471	335.027
24.6888	333.868
24.8313	332.711
24.9747	331.556
25.1189	330.403
25.2639	329.253
25.4097	328.104
25.5564	326.958
25.704	325.813
25.8523	324.671
26.0016	323.531
26.1517	322.392
26.3027	321.256
26.4545	320.122
26.6073	318.99
26.7609	317.859
26.9153	316.731
27.0707	315.605
27.227	314.48
27.3842	313.357
27.5423	312.236
27.7013	311.116
27.8612	309.999
28.0221	308.883
28.1838	307.769
28.3465	306.657
28.5102	305.546
28.6748	304.438
28.8403	303.332
29.0068	302.227
29.1743	301.125
29.3427	300.025
29.5121	298.927
29.6825	297.831
29.8538	296.737
30.0262	295.645
30.1995	294.555
30.3739	293.468
30.5492	292.383
30.7256	291.3
30.903	290.219
31.0814	289.14
31.2608	288.064
31.4413	286.99
31.6228	285.918
31.8053	284.848
31.989	283.781
32.1736	282.716
32.3594	281.653
32.5462	280.593
32.7341	279.535
32.923	278.479
33.1131	277.424
33.3043	276.371
33.4965	275.32
33.6899	274.272
33.8844	273.226
34.08	272.182
34.2768	271.141
34.4747	270.102
34.6737	269.065
34.8739	268.032
35.0752	267
35.2777	265.971
35.4813	264.945
35.6862	263.922
35.8922	262.901
36.0994	261.883
36.3078	260.867
36.5174	259.854
36.7282	258.844
36.9403	257.836
37.1535	256.832
37.368	255.83
37.5837	254.83
37.8007	253.834
38.0189	252.84
38.2384	251.85
38.4592	250.861
38.6812	249.876
38.9045	248.894
39.1291	247.914
39.355	246.937
39.5822	245.963
39.8107	244.991
40.0405	244.023
40.2717	243.057
40.5042	242.093
40.738	241.133
40.9732	240.175
41.2098	239.219
41.4477	238.267
41.6869	237.317
41.9276	236.369
42.1697	235.424
42.4131	234.481
42.658	233.541
42.9042	232.603
43.1519	231.667
43.401	230.734
43.6516	229.803
43.9036	228.874
44.157	227.95
44.412	227.031
44.6684	226.114
44.9262	225.199
45.1856	224.286
45.4465	223.376
45.7088	222.467
45.9727	221.561
46.2381	220.658
46.505	219.756
46.7735	218.857
47.0435	217.961
47.3151	217.066
47.5883	216.175
47.863	215.285
48.1393	214.399
48.4172	213.514
48.6968	212.633
48.9779	211.754
49.2606	210.877
49.545	210.003
49.831	209.132
50.1187	208.264
50.4081	207.398
50.6991	206.535
50.9918	205.674
51.2861	204.817
51.5822	203.962
51.88	203.109
52.1795	202.26
52.4807	201.413
52.7837	200.569
53.0884	199.728
53.3949	198.89
53.7032	198.054
54.0132	197.221
54.325	196.391
54.6387	195.564
54.9541	194.74
55.2713	193.916
55.5904	193.096
55.9114	192.278
56.2341	191.463
56.5588	190.65
56.8853	189.841
57.2137	189.034
57.544	188.23
57.8762	187.429
58.2103	186.631
58.5464	185.835
58.8844	185.043
59.2243	184.253
59.5662	183.467
59.9101	182.683
60.256	181.902
60.6038	181.123
60.9537	180.348
61.3056	179.576
61.6595	178.806
62.0155	178.039
62.3735	177.275
62.7336	176.514
63.0957	175.756
63.46	175
63.8263	174.247
64.1948	173.497
64.5654	172.749
64.9382	172.004
65.3131	171.261
65.6901	170.521
66.0693	169.784
66.4508	169.049
66.8344	168.316
67.2202	167.586
67.6083	166.859
67.9986	166.134
68.3912	165.411
68.786	164.692
69.1831	163.974
69.5825	163.259
69.9842	162.547
70.3882	161.838
70.7946	161.131
71.2033	160.426
71.6143	159.725
72.0278	159.025
72.4436	158.329
72.8618	157.635
73.2825	156.943
73.7055	156.255
74.131	155.568
74.559	154.885
74.9894	154.204
75.4223	153.525
75.8578	152.849
76.2957	152.175
76.7361	151.504
77.1792	150.836
77.6247	150.17
78.0728	149.506
78.5236	148.845
78.9769	148.186
79.4328	147.53
79.8914	146.876
80.3526	146.224
80.8165	145.576
81.2831	144.929
81.7523	144.286
82.2243	143.644
82.699	143.006
83.1764	142.369
83.6566	141.736
84.1395	141.104
84.6253	140.476
85.1138	139.849
85.6052	139.226
86.0994	138.604
86.5964	137.985
87.0964	137.369
87.5992	136.755
88.1049	136.143
88.6135	135.534
89.1251	134.927
89.6396	134.322
90.1571	133.72
90.6776	133.12
91.2011	132.523
91.7276	131.928
92.2571	131.335
92.7897	130.745
93.3254	130.157
93.8642	129.572
94.4061	128.989
94.9511	128.409
95.4993	127.831
96.0506	127.256
96.6051	126.682
97.1628	126.112
97.7237	125.544
98.2879	124.978
98.8553	124.414
99.426	123.853
100	123.294
100.577	122.738
101.158	122.184
101.742	121.632
102.329	121.083
102.92	120.536
103.514	119.991
104.112	119.448
104.713	118.908
105.317	118.369
105.925	117.833
106.537	117.299
107.152	116.767
107.771	116.237
108.393	115.709
109.018	115.183
109.648	114.659
110.281	114.136
110.917	113.614
111.558	113.094
112.202	112.576
112.85	112.06
113.501	111.546
114.156	111.034
114.815	110.523
115.478	110.015
116.145	109.509
116.815	109.004
117.49	108.502
118.168	108.002
118.85	107.503
119.536	107.007
120.226	106.513
120.921	106.022
121.619	105.532
122.321	105.044
123.027	104.559
123.737	104.076
124.451	103.595
125.17	103.116
125.893	102.64
126.619	102.165
127.35	101.694
128.086	101.224
128.825	100.756
129.569	100.291
130.317	99.8284
131.069	99.3678
131.826	98.9095
132.587	98.4536
133.352	97.9999
134.122	97.5485
134.896	97.0994
135.675	96.6527
136.458	96.2082
137.246	95.7659
138.038	95.326
138.835	94.8883
139.637	94.4529
140.443	94.0198
141.254	93.5888
142.069	93.1601
142.889	92.7335
143.714	92.3092
144.544	91.8869
145.378	91.4668
146.218	91.0488
147.062	90.6329
147.911	90.219
148.765	89.8071
149.624	89.3972
150.487	88.9892
151.356	88.5831
152.23	88.1788
153.109	87.7763
153.993	87.3756
154.882	86.9766
155.776	86.5792
156.675	86.1835
157.58	85.7892
158.489	85.3964
159.404	85.005
160.325	84.6149
161.25	84.2261
162.181	83.8384
163.117	83.4519
164.059	83.0663
165.006	82.6817
165.959	82.309
166.917	81.9371
167.88	81.5662
168.85	81.1962
169.824	80.8272
170.805	80.4592
171.791	80.0922
172.783	79.7263
173.78	79.3613
174.783	78.9975
175.792	78.6347
176.807	78.2731
177.828	77.9126
178.855	77.5532
179.887	77.195
180.926	76.8379
181.97	76.4821
183.021	76.1275
184.077	75.7741
185.14	75.422
186.209	75.0712
187.284	74.7216
188.365	74.3734
189.452	74.0264
190.546	73.6809
191.646	73.3366
192.752	72.9938
193.865	72.6523
194.984	72.3122
196.11	71.9736
197.242	71.6364
198.381	71.3006
199.526	70.9663
200.678	70.6334
201.837	70.3021
203.002	69.9722
204.174	69.6438
205.353	69.317
206.538	68.9916
207.73	68.6678
208.93	68.3456
210.136	68.0249
211.349	67.7057
212.569	67.3882
213.796	67.0722
215.03	66.7578
216.272	66.4449
217.52	66.1337
218.776	65.824
220.039	65.5159
221.309	65.2076
222.587	64.9009
223.872	64.5958
225.165	64.2923
226.464	63.9904
227.772	63.6901
229.087	63.3914
230.409	63.0943
231.739	62.7988
233.077	62.505
234.423	62.2127
235.776	61.922
237.137	61.6329
238.506	61.3454
239.883	61.0595
241.268	60.7752
242.661	60.4924
244.062	60.2112
245.471	59.9316
246.888	59.6534
248.313	59.3768
249.747	59.1017
251.189	58.8281
252.639	58.5559
254.097	58.2852
255.564	58.016
257.04	57.7481
258.523	57.4816
260.016	57.2165
261.517	56.9527
263.027	56.6902
264.545	56.4289
266.073	56.1689
267.609	55.9101
269.153	55.6525
270.707	55.3959
272.27	55.1405
273.842	54.8861
275.423	54.6326
277.013	54.3801
278.612	54.1285
280.221	53.8779
281.838	53.6283
283.465	53.3796
285.102	53.132
286.748	52.8854
288.403	52.6398
290.068	52.3952
291.743	52.1516
293.427	51.9091
295.121	51.6676
296.825	51.4272
298.538	51.1878
300.262	50.9494
301.995	50.7121
303.739	50.4759
305.492	50.2407
307.256	50.0066
309.03	49.7736
310.814	49.5416
312.608	49.3107
314.413	49.0808
316.228	48.852
318.053	48.6242
319.89	48.3975
321.736	48.1719
323.594	47.9473
325.462	47.7237
327.341	47.5011
329.23	47.2796
331.131	47.0588
333.043	46.8389
334.965	46.6199
336.899	46.402
338.844	46.1851
340.8	45.9693
342.768	45.7545
344.747	45.5408
346.737	45.3281
348.739	45.1165
350.752	44.906
352.777	44.6965
354.813	44.4881
356.862	44.2808
358.922	44.0745
360.994	43.8694
363.078	43.6653
365.174	43.4623
367.282	43.2604
369.403	43.0596
371.535	42.8599
373.68	42.6612
375.837	42.4637
378.007	42.2672
380.189	42.0717
382.384	41.8774
384.592	41.684
386.812	41.4918
389.045	41.3006
391.291	41.1104
393.55	40.9213
395.822	40.7331
398.107	40.546
400.405	40.3599
402.717	40.1747
405.042	39.9906
407.38	39.8073
409.732	39.6251
412.098	39.4437
414.477	39.2632
416.869	39.0836
419.276	38.9049
421.697	38.727
424.131	38.5499
426.58	38.3736
429.042	38.1981
431.519	38.0233
434.01	37.8492
436.516	37.6758
439.036	37.5031
441.57	37.3319
444.12	37.1619
446.684	36.9925
449.262	36.8238
451.856	36.6557
454.465	36.4882
457.088	36.3214
459.727	36.1552
462.381	35.9897
465.05	35.8249
467.735	35.6607
470.435	35.4972
473.151	35.3345
475.883	35.1724
478.63	35.011
481.393	34.8503
484.172	34.6903
486.968	34.531
489.779	34.3724
492.606	34.2146
495.45	34.0575
498.31	33.9011
501.187	33.7455
504.081	33.5905
506.991	33.4364
509.918	33.2829
512.861	33.1302
515.822	32.9783
518.8	32.8271
521.795	32.6766
524.807	32.5269
527.837	32.3779
530.884	32.2297
533.949	32.0822
537.032	31.9355
540.132	31.7894
543.25	31.6442
546.387	31.4996
549.541	31.3558
552.713	31.2124
555.904	31.0697
559.114	30.9277
562.341	30.7864
565.588	30.6459
568.853	30.5061
572.137	30.367
575.44	30.2287
578.762	30.0911
582.103	29.9542
585.464	29.818
588.844	29.6825
592.243	29.5478
595.662	29.4138
599.101	29.2805
602.56	29.1479
606.038	29.016
609.537	28.8848
613.056	28.7544
616.595	28.6246
620.155	28.4954
623.735	28.367
627.336	28.2392
630.957	28.1121
634.6	27.9856
638.263	27.8598
641.948	27.7346
645.654	27.61
649.382	27.486
653.131	27.3626
656.901	27.2398
660.693	27.1175
664.508	26.9958
668.344	26.8746
672.202	26.7539
676.083	26.6338
679.986	26.5143
683.912	26.3953
687.86	26.2769
691.831	26.1591
695.825	26.0418
699.842	25.9251
703.882	25.809
707.946	25.6934
712.033	25.5784
716.143	25.4639
720.278	25.35
724.436	25.2367
728.618	25.124
732.825	25.0118
737.055	24.9001
741.31	24.7891
745.59	24.6785
749.894	24.5686
754.223	24.4592
758.578	24.3503
762.957	24.2419
767.361	24.1341
771.792	24.0269
776.247	23.9201
780.728	23.8139
785.236	23.7082
789.769	23.603
794.328	23.4984
798.914	23.3942
803.526	23.2907
808.165	23.1876
812.831	23.085
817.523	22.983
822.243	22.8815
826.99	22.7806
831.764	22.6801
836.566	22.5801
841.395	22.4807
846.253	22.3818
851.138	22.2833
856.052	22.1854
860.994	22.088
865.964	21.991
870.964	21.8945
875.992	21.7985
881.049	21.703
886.135	21.6079
891.251	21.5133
896.396	21.4192
901.571	21.3255
906.776	21.2323
912.011	21.1395
917.276	21.0472
922.571	20.9554
927.897	20.8641
933.254	20.7732
938.642	20.6827
944.061	20.5928
949.511	20.5032
954.993	20.4142
960.506	20.3256
966.051	20.2375
971.628	20.1498
977.237	20.0625
982.879	19.9757
988.553	19.8893
994.26	19.8034
1000	19.7179
1005.77	19.6328
1011.58	19.5482
1017.42	19.464
1023.29	19.3802
1029.2	19.2968
1035.14	19.2138
1041.12	19.1312
1047.13	19.0491
1053.17	18.9673
1059.25	18.8859
1065.37	18.8023
1071.52	18.7158
1077.71	18.6298
1083.93	18.5442
1090.18	18.459
1096.48	18.3742
1102.81	18.2898
1109.17	18.2056
1115.58	18.1218
1122.02	18.0384
1128.5	17.9555
1135.01	17.8729
1141.56	17.7907
1148.15	17.709
1154.78	17.6276
1161.45	17.5467
1168.15	17.4662
1174.9	17.3861
1181.68	17.3065
1188.5	17.2272
1195.36	17.1484
1202.26	17.0701
1209.21	16.9922
1216.19	16.9147
1223.21	16.8376
1230.27	16.761
1237.37	16.6849
1244.51	16.6092
1251.7	16.5339
1258.93	16.4591
1266.19	16.3847
1273.5	16.3108
1280.86	16.2374
1288.25	16.1643
1295.69	16.0918
1303.17	16.0197
1310.69	15.948
1318.26	15.8768
1325.87	15.806
1333.52	15.7357
1341.22	15.6659
1348.96	15.5965
1356.75	15.5275
1364.58	15.459
1372.46	15.3909
1380.38	15.3233
1388.35	15.2561
1396.37	15.1894
1404.43	15.123
1412.54	15.0571
1420.69	14.9917
1428.89	14.9266
1437.14	14.862
1445.44	14.7978
1453.78	14.734
1462.18	14.6706
1470.62	14.6075
1479.11	14.5449
1487.65	14.4827
1496.24	14.4208
1504.87	14.3593
1513.56	14.2982
1522.3	14.2374
1531.09	14.1769
1539.93	14.1168
1548.82	14.057
1557.76	13.9976
1566.75	13.9384
1575.8	13.8795
1584.89	13.8209
1594.04	13.7626
1603.25	13.7045
1612.5	13.6466
1621.81	13.589
1631.17	13.5316
1640.59	13.4744
1650.06	13.4173
1659.59	13.3623
1669.17	13.3073
1678.8	13.2526
1688.5	13.198
1698.24	13.1437
1708.05	13.0895
1717.91	13.0355
1727.83	12.9817
1737.8	12.9281
1747.83	12.8746
1757.92	12.8214
1768.07	12.7684
1778.28	12.7156
1788.55	12.663
1798.87	12.6106
1809.26	12.5584
1819.7	12.5064
1830.21	12.4547
1840.77	12.4031
1851.4	12.3518
1862.09	12.3007
1872.84	12.2499
1883.65	12.1993
1894.52	12.1489
1905.46	12.0987
1916.46	12.0488
1927.52	11.9991
1938.65	11.9496
1949.84	11.9004
1961.1	11.8515
1972.42	11.8028
1983.81	11.7543
1995.26	11.7061
2006.78	11.6582
2018.37	11.6105
2030.02	11.563
2041.74	11.5159
2053.53	11.4689
2065.38	11.4223
2077.3	11.3759
2089.3	11.3298
2101.36	11.2839
2113.49	11.2383
2125.69	11.193
2137.96	11.1479
2150.3	11.1031
2162.72	11.0586
2175.2	11.0144
2187.76	10.9704
2200.39	10.9267
2213.09	10.883
2225.87	10.8396
2238.72	10.7964
2251.65	10.7535
2264.64	10.7109
2277.72	10.6686
2290.87	10.6266
2304.09	10.5848
2317.39	10.5433
2330.77	10.502
2344.23	10.461
2357.76	10.4203
2371.37	10.3799
2385.06	10.3398
2398.83	10.2999
2412.68	10.2602
2426.61	10.2209
2440.62	10.1818
2454.71	10.1429
2468.88	10.1044
2483.13	10.066
2497.47	10.028
2511.89	9.99016
2526.39	9.95259
2540.97	9.91526
2555.64	9.87817
2570.4	9.84132
2585.23	9.8047
2600.16	9.76832
2615.17	9.73215
2630.27	9.69621
2645.45	9.66048
2660.73	9.62496
2676.09	9.58964
2691.53	9.55452
2707.07	9.51959
2722.7	9.48484
2738.42	9.45027
2754.23	9.41587
2770.13	9.38163
2786.12	9.34755
2802.21	9.31363
2818.38	9.27988
2834.65	9.24631
2851.02	9.2129
2867.48	9.17966
2884.03	9.1466
2900.68	9.1137
2917.43	9.08098
2934.27	9.04843
2951.21	9.01605
2968.25	8.98385
2985.38	8.95182
3002.62	8.91997
3019.95	8.88829
3037.39	8.85678
3054.92	8.82545
3072.56	8.79429
3090.3	8.7633
3108.14	8.73249
3126.08	8.70185
3144.13	8.67138
3162.28	8.64109
3180.53	8.61096
3198.9	8.58101
3217.36	8.55122
3235.94	8.5216
3254.62	8.49214
3273.41	8.46286
3292.3	8.43373
3311.31	8.40472
3330.43	8.37585
3349.65	8.34714
3368.99	8.3186
3388.44	8.29022
3408	8.262
3427.68	8.23394
3447.47	8.20606
3467.37	8.17834
3487.39	8.15078
3507.52	8.1234
3527.77	8.09618
3548.13	8.06913
3568.62	8.04225
3589.22	8.01554
3609.94	7.989
3630.78	7.96262
3651.74	7.93642
3672.82	7.91039
3694.03	7.88452
3715.35	7.85882
3736.8	7.83329
3758.37	7.80793
3780.07	7.78274
3801.89	7.75771
3823.84	7.73285
3845.92	7.70815
3868.12	7.68362
3890.45	7.65925
3912.91	7.63504
3935.5	7.61099
3958.22	7.5871
3981.07	7.56336
4004.05	7.53978
4027.17	7.51635
4050.42	7.49308
4073.8	7.46995
4097.32	7.44697
4120.98	7.42413
4144.77	7.40144
4168.69	7.37888
4192.76	7.35645
4216.97	7.33416
4241.31	7.312
4265.8	7.28996
4290.42	7.26804
4315.19	7.24624
4340.1	7.22455
4365.16	7.20297
4390.36	7.18149
4415.7	7.16024
4441.2	7.13918
4466.84	7.11822
4492.62	7.09735
4518.56	7.07659
4544.65	7.05593
4570.88	7.03537
4597.27	7.01492
4623.81	6.99458
4650.5	6.97434
4677.35	6.9542
4704.35	6.93418
4731.51	6.91426
4758.83	6.89445
4786.3	6.87475
4813.93	6.85517
4841.72	6.83569
4869.68	6.81632
4897.79	6.79707
4926.06	6.77793
4954.5	6.75891
4983.1	6.74
5011.87	6.7212
5040.81	6.70251
5069.91	6.68394
5099.18	6.66549
5128.61	6.64715
5158.22	6.62893
5188	6.61082
5217.95	6.59283
5248.07	6.57495
5278.37	6.55719
5308.84	6.53954
5339.49	6.52201
5370.32	6.50459
5401.32	6.48728
5432.5	6.47009
5463.87	6.45301
5495.41	6.43605
5527.13	6.41915
5559.04	6.40236
5591.14	6.38569
5623.41	6.36912
5655.88	6.35267
5688.53	6.33632
5721.37	6.32009
5754.4	6.30397
5787.62	6.28796
5821.03	6.27206
5854.64	6.25628
5888.44	6.2406
5922.43	6.22503
5956.62	6.20957
5991.01	6.19422
6025.6	6.17898
6060.38	6.16384
6095.37	6.14881
6130.56	6.13389
6165.95	6.11907
6201.55	6.10435
6237.35	6.08973
6273.36	6.07522
6309.57	6.0608
6346	6.04648
6382.63	6.03226
6419.48	6.01813
6456.54	6.00409
6493.82	5.99014
6531.31	5.97628
6569.01	5.96251
6606.93	5.94882
6645.08	5.9352
6683.44	5.92168
6722.02	5.90823
6760.83	5.89487
6799.86	5.88158
6839.12	5.86839
6878.6	5.85527
6918.31	5.84224
6958.25	5.8293
6998.42	5.81644
7038.82	5.80366
7079.46	5.79097
7120.33	5.77836
7161.43	5.76584
7202.78	5.7534
7244.36	5.74104
7286.18	5.72877
7328.25	5.71658
7370.55	5.70448
7413.1	5.69246
7455.9	5.68053
7498.94	5.66867
7542.23	5.6569
7585.78	5.64521
7629.57	5.6336
7673.61	5.62207
7717.92	5.61063
7762.47	5.59926
7807.28	5.58797
7852.36	5.57676
7897.69	5.56562
7943.28	5.55457
7989.14	5.5436
8035.26	5.5327
8081.65	5.52188
8128.31	5.51114
8175.23	5.50048
8222.43	5.4899
8269.9	5.47939
8317.64	5.46895
8365.66	5.4586
8413.95	5.44831
8462.53	5.4381
8511.38	5.42797
8560.52	5.4179
8609.94	5.40791
8659.64	5.39799
8709.64	5.38813
8759.92	5.37834
8810.49	5.36862
8861.35	5.35897
8912.51	5.34938
8963.96	5.33986
9015.71	5.3304
9067.76	5.32101
9120.11	5.31168
9172.76	5.30243
9225.71	5.29323
9278.97	5.28411
9332.54	5.27504
9386.42	5.26605
9440.61	5.25712
9495.11	5.24826
9549.93	5.23946
9605.06	5.23072
9660.51	5.22205
9716.28	5.21345
9772.37	5.20491
9828.79	5.19643
9885.53	5.18801
9942.6	5.17966
10000	5.17136
10057.7	5.16313
10115.8	5.15496
10174.2	5.14685
10232.9	5.1388
10292	5.1308
10351.4	5.12286
10411.2	5.11498
10471.3	5.10715
10531.7	5.09937
10592.5	5.09164
10653.7	5.08397
10715.2	5.07635
10777.1	5.06877
10839.3	5.06124
10901.8	5.05375
10964.8	5.0463
11028.1	5.03871
11091.7	5.03094
11155.8	5.02322
11220.2	5.01556
11285	5.00796
11350.1	5.00041
11415.6	4.99292
11481.5	4.98548
11547.8	4.9781
11614.5	4.97078
11681.5	4.96351
11749	4.95629
11816.8	4.94913
11885	4.94203
11953.6	4.93497
12022.6	4.92797
12092.1	4.92103
12161.9	4.91414
12232.1	4.90729
12302.7	4.90051
12373.7	4.89377
12445.1	4.88708
12517	4.88045
12589.3	4.87387
12661.9	4.86734
12735	4.86086
12808.6	4.85443
12882.5	4.84804
12956.9	4.84171
13031.7	4.83543
13106.9	4.8292
13182.6	4.82301
13258.7	4.81688
13335.2	4.81079
13412.2	4.80475
13489.6	4.79876
13567.5	4.79281
13645.8	4.78692
13724.6	4.78107
13803.8	4.77526
13883.5	4.76951
13963.7	4.76379
14044.3	4.75813
14125.4	4.75251
14206.9	4.74693
14288.9	4.7414
14371.4	4.73592
14454.4	4.73048
14537.8	4.72508
14621.8	4.71973
14706.2	4.71442
14791.1	4.70915
14876.5	4.70393
14962.4	4.69875
15048.7	4.69362
15135.6	4.68852
15223	4.68347
15310.9	4.67846
15399.3	4.67349
15488.2	4.66856
15577.6	4.66368
15667.5	4.65883
15758	4.65403
15848.9	4.64927
15940.4	4.64454
16032.5	4.63986
16125	4.63521
16218.1	4.63061
16311.7	4.62604
16405.9	4.62152
16500.6	4.61703
16595.9	4.61258
16691.7	4.60817
16788	4.6038
16885	4.59946
16982.4	4.59517
17080.5	4.59091
17179.1	4.58668
17278.3	4.5825
17378	4.57835
17478.3	4.57424
17579.2	4.57016
17680.7	4.56612
17782.8	4.56212
17885.5	4.55815
17988.7	4.55421
18092.6	4.55032
18197	4.54645
18302.1	4.54262
18407.7	4.53883
18514	4.53507
18620.9	4.53134
18728.4	4.52765
18836.5	4.52399
18945.2	4.52037
19054.6	4.51678
19164.6	4.51322
19275.2	4.50969
19386.5	4.5062
19498.4	4.50274
19611	4.49931
19724.2	4.49591
19838.1	4.49254
19952.6	4.48921
20067.8	4.48591
20183.7	4.48264
20300.2	4.4794
20417.4	4.47619
20535.3	4.47301
20653.8	4.46986
20773	4.46674
20893	4.46365
21013.6	4.46059
21134.9	4.45756
21256.9	4.45456
21379.6	4.45159
21503	4.44865
21627.2	4.44574
21752	4.44285
21877.6	4.44
22003.9	4.43717
22130.9	4.43437
22258.7	4.4316
22387.2	4.42885
22516.5	4.42613
22646.4	4.42344
22777.2	4.42078
22908.7	4.41815
23040.9	4.41554
23173.9	4.41295
23307.7	4.4104
23442.3	4.40787
23577.6	4.40536
23713.7	4.40289
23850.6	4.40043
23988.3	4.39801
24126.8	4.3956
24266.1	4.39323
24406.2	4.39088
24547.1	4.38855
24688.8	4.38625
24831.3	4.38397
24974.7	4.38172
25118.9	4.37949
25263.9	4.37728
25409.7	4.3751
25556.4	4.37294
25704	4.37081
25852.3	4.36869
26001.6	4.3666
26151.7	4.36454
26302.7	4.3625
26454.5	4.36048
26607.3	4.35848
26760.9	4.3565
26915.3	4.35455
27070.7	4.35262
27227	4.35071
27384.2	4.34882
27542.3	4.34695
27701.3	4.34511
27861.2	4.34328
28022.1	4.34148
28183.8	4.3397
28346.5	4.33794
28510.2	4.33619
28674.8	4.33447
28840.3	4.33277
29006.8	4.33109
29174.3	4.32943
29342.7	4.32779
29512.1	4.32617
29682.5	4.32457
29853.8	4.32298
30026.2	4.32142
30199.5	4.31988
30373.9	4.31835
30549.2	4.31685
30725.6	4.31536
30903	4.31389
31081.4	4.31244
31260.8	4.311
31441.3	4.30959
31622.8	4.30819
31805.3	4.30681
31989	4.30545
32173.6	4.30411
32359.4	4.30278
32546.2	4.30147
32734.1	4.30018
32923	4.2989
33113.1	4.29764
33304.3	4.2964
33496.5	4.29517
33689.9	4.29396
33884.4	4.29277
34080	4.29159
34276.8	4.29043
34474.7	4.28929
34673.7	4.28816
34873.9	4.28704
35075.2	4.28594
35277.7	4.28486
35481.3	4.28379
35686.2	4.28274
35892.2	4.2817
36099.4	4.28068
36307.8	4.27967
36517.4	4.27868
36728.2	4.2777
36940.3	4.27673
37153.5	4.27578
37368	4.27485
37583.7	4.27392
37800.7	4.27302
38018.9	4.27212
38238.4	4.27124
38459.2	4.27037
38681.2	4.26952
38904.5	4.26868
39129.1	4.26785
39355	4.26703
39582.2	4.26623
39810.7	4.26544
40040.5	4.26467
40271.7	4.2639
40504.2	4.26315
40738	4.26241
40973.2	4.26169
41209.8	4.26097
41447.7	4.26027
41686.9	4.25958
41927.6	4.2589
42169.7	4.25823
42413.1	4.25758
42658	4.25693
42904.2	4.2563
43151.9	4.25568
43401	4.25507
43651.6	4.25447
43903.6	4.25388
44157	4.25331
44412	4.25274
44668.4	4.25218
44926.2	4.25164
45185.6	4.2511
45446.5	4.25058
45708.8	4.25007
45972.7	4.24956
46238.1	4.24907
46505	4.24858
46773.5	4.24811
47043.5	4.24765
47315.1	4.24719
47588.3	4.24675
47863	4.24631
48139.3	4.24589
48417.2	4.24547
48696.8	4.24506
48977.9	4.24467
49260.6	4.24428
49545	4.2439
49831	4.24353
50118.7	4.24316
50408.1	4.24281
50699.1	4.24246
50991.8	4.24213
51286.1	4.2418
51582.2	4.24148
51880	4.24117
52179.5	4.24086
52480.7	4.24057
52783.7	4.24028
53088.4	4.24
53394.9	4.23973
53703.2	4.23947
54013.2	4.23921
54325	4.23896
54638.7	4.23872
54954.1	4.23849
55271.3	4.23826
55590.4	4.23804
55911.4	4.23783
56234.1	4.23762
56558.8	4.23743
56885.3	4.23724
57213.7	4.23705
57544	4.23687
57876.2	4.2367
58210.3	4.23654
58546.4	4.23638
58884.4	4.23623
59224.3	4.23609
59566.2	4.23595
59910.1	4.23582
60256	4.23569
60603.8	4.23557
60953.7	4.23546
61305.6	4.23535
61659.5	4.23525
62015.5	4.23515
62373.5	4.23506
62733.6	4.23498
63095.7	4.2349
63460	4.23483
63826.3	4.23476
64194.8	4.2347
64565.4	4.23464
64938.2	4.23459
65313.1	4.23454
65690.1	4.2345
66069.3	4.23447
66450.8	4.23444
66834.4	4.23441
67220.2	4.23439
67608.3	4.23437
67998.6	4.23436
68391.2	4.23436
68786	4.23435
69183.1	4.23436
69582.5	4.23436
69984.2	4.23437
70388.2	4.23439
70794.6	4.23441
71203.3	4.23444
71614.3	4.23446
72027.8	4.2345
72443.6	4.23454
72861.8	4.23458
73282.5	4.23462
73705.5	4.23467
74131	4.23473
74559	4.23478
74989.4	4.23484
75422.3	4.23491
75857.8	4.23498
76295.7	4.23505
76736.1	4.23512
77179.2	4.2352
77624.7	4.23529
78072.8	4.23537
78523.6	4.23546
78976.9	4.23555
79432.8	4.23565
79891.4	4.23575
80352.6	4.23585
80816.5	4.23596
81283.1	4.23607
81752.3	4.23618
82224.3	4.23629
82699	4.23641
83176.4	4.23653
83656.6	4.23665
84139.5	4.23678
84625.3	4.23691
85113.8	4.23704
85605.2	4.23718
86099.4	4.23731
86596.4	4.23745
87096.4	4.23759
87599.2	4.23774
88104.9	4.23789
88613.5	4.23804
89125.1	4.23819
89639.6	4.23834
90157.1	4.2385
90677.6	4.23866
91201.1	4.23882
91727.6	4.23898
92257.1	4.23914
92789.7	4.23931
93325.4	4.23948
93864.2	4.23965
94406.1	4.23982
94951.1	4.24
95499.3	4.24018
96050.6	4.24035
96605.1	4.24053
97162.8	4.24072
97723.7	4.2409
98287.9	4.24109
98855.3	4.24127
99426	4.24146
100000	4.24165
100577	4.24185
101158	4.24204
101742	4.24223
102329	4.24243
102920	4.24263
103514	4.24283
104112	4.24303
104713	4.24323
105317	4.24343
105925	4.24364
106537	4.24384
107152	4.24405
107771	4.24426
108393	4.24447
109018	4.24468
109648	4.24489
110281	4.2451
110917	4.24531
111558	4.24553
112202	4.24574
112850	4.24596
113501	4.24617
114156	4.24639
114815	4.24661
115478	4.24683
116145	4.24705
116815	4.24727
117490	4.24749
118168	4.24771
118850	4.24794
119536	4.24816
120226	4.24838
120921	4.24861
121619	4.24883
122321	4.24906
123027	4.24929
123737	4.24951
124451	4.24974
125170	4.24997
125893	4.2502
126619	4.25042
127350	4.25065
128086	4.25088
128825	4.25111
129569	4.25134
130317	4.25157
131069	4.2518
131826	4.25203
132587	4.25226
133352	4.25249
134122	4.25272
134896	4.25296
135675	4.25319
136458	4.25342
137246	4.25365
138038	4.25388
138835	4.25411
139637	4.25434
140443	4.25458
141254	4.25481
142069	4.25504
142889	4.25527
143714	4.2555
144544	4.25573
145378	4.25596
146218	4.2562
147062	4.25643
147911	4.25666
148765	4.25689
149624	4.25712
150487	4.25735
151356	4.25758
152230	4.25781
153109	4.25804
153993	4.25827
154882	4.2585
155776	4.25872
156675	4.25895
157580	4.25918
158489	4.25941
159404	4.25964
160325	4.25986
161250	4.26009
162181	4.26032
163117	4.26054
164059	4.26077
165006	4.26099
165959	4.26122
166917	4.26144
167880	4.26166
168850	4.26189
169824	4.26211
170805	4.26233
171791	4.26255
172783	4.26277
173780	4.26299
174783	4.26321
175792	4.26343
176807	4.26365
177828	4.26387
178855	4.26408
179887	4.2643
180926	4.26452
181970	4.26473
183021	4.26495
184077	4.26516
185140	4.26537
186209	4.26559
187284	4.2658
188365	4.26601
189452	4.26622
190546	4.26643
191646	4.26664
192752	4.26685
193865	4.26706
194984	4.26726
196110	4.26747
197242	4.26767
198381	4.26788
199526	4.26808
200678	4.26829
201837	4.26849
203002	4.26869
204174	4.26889
205353	4.26909
206538	4.26929
207730	4.26949
208930	4.26968
210136	4.26988
211349	4.27007
212569	4.27027
213796	4.27046
215030	4.27066
216272	4.27085
217520	4.27104
218776	4.27123
220039	4.27142
221309	4.27161
222587	4.27179
223872	4.27198
225165	4.27217
226464	4.27235
227772	4.27253
229087	4.27272
230409	4.2729
231739	4.27308
233077	4.27326
234423	4.27344
235776	4.27362
237137	4.27379
238506	4.27397
239883	4.27414
241268	4.27432
242661	4.27449
244062	4.27466
245471	4.27483
246888	4.275
248313	4.27517
249747	4.27534
251189	4.27551
252639	4.27567
254097	4.27584
255564	4.276
257040	4.27617
258523	4.27633
260016	4.27649
261517	4.27665
263027	4.27681
264545	4.27697
266073	4.27712
267609	4.27728
269153	4.27743
270707	4.27759
272270	4.27774
273842	4.27789
275423	4.27804
277013	4.27819
278612	4.27834
280221	4.27849
281838	4.27864
283465	4.27878
285102	4.27893
286748	4.27907
288403	4.27921
290068	4.27935
291743	4.27949
293427	4.27963
295121	4.27977
296825	4.27991
298538	4.28004
300262	4.28018
301995	4.28031
303739	4.28045
305492	4.28058
307256	4.28071
309030	4.28084
310814	4.28097
312608	4.28109
314413	4.28122
316228	4.28135
318053	4.28147
319890	4.2816
321736	4.28172
323594	4.28184
325462	4.28196
327341	4.28208
329230	4.2822
331131	4.28231
333043	4.28243
334965	4.28255
336899	4.28266
338844	4.28277
340800	4.28289
342768	4.283
344747	4.28311
346737	4.28322
348739	4.28332
350752	4.28343
352777	4.28354
354813	4.28364
356862	4.28374
358922	4.28385
360994	4.28395
363078	4.28405
365174	4.28415
367282	4.28425
369403	4.28435
371535	4.28444
373680	4.28454
375837	4.28463
378007	4.28473
380189	4.28482
382384	4.28491
384592	4.285
386812	4.28509
389045	4.28518
391291	4.28527
393550	4.28536
395822	4.28544
398107	4.28553
400405	4.28561
402717	4.28569
405042	4.28578
407380	4.28586
409732	4.28594
412098	4.28602
414477	4.28609
416869	4.28617
419276	4.28625
421697	4.28632
424131	4.2864
426580	4.28647
429042	4.28654
431519	4.28662
434010	4.28669
436516	4.28676
439036	4.28682
441570	4.28689
444120	4.28696
446684	4.28703
449262	4.28709
451856	4.28716
454465	4.28722
457088	4.28728
459727	4.28734
462381	4.2874
465050	4.28746
467735	4.28752
470435	4.28758
473151	4.28764
475883	4.28769
478630	4.28775
481393	4.28781
484172	4.28786
486968	4.28791
489779	4.28796
492606	4.28802
495450	4.28807
498310	4.28812
501187	4.28817
504081	4.28821
506991	4.28826
509918	4.28831
512861	4.28835
515822	4.2884
518800	4.28844
521795	4.28849
524807	4.28853
527837	4.28857
530884	4.28861
533949	4.28865
537032	4.28869
540132	4.28873
543250	4.28877
546387	4.28881
549541	4.28884
552713	4.28888
555904	4.28891
559114	4.28895
562341	4.28898
565588	4.28901
568853	4.28905
572137	4.28908
575440	4.28911
578762	4.28914
582103	4.28917
585464	4.2892
588844	4.28923
592243	4.28925
595662	4.28928
599101	4.28931
602560	4.28933
606038	4.28936
609537	4.28938
613056	4.2894
616595	4.28943
620155	4.28945
623735	4.28947
627336	4.28949
630957	4.28951
634600	4.28953
638263	4.28955
641948	4.28957
645654	4.28959
649382	4.28961
653131	4.28962
656901	4.28964
660693	4.28966
664508	4.28967
668344	4.28969
672202	4.2897
676083	4.28971
679986	4.28973
683912	4.28974
687860	4.28975
691831	4.28976
695825	4.28978
699842	4.28979
703882	4.2898
707946	4.28981
712033	4.28982
716143	4.28982
720278	4.28983
724436	4.28984
728618	4.28985
732825	4.28986
737055	4.28986
741310	4.28987
745590	4.28987
749894	4.28988
754223	4.28988
758578	4.28989
762957	4.28989
767361	4.2899
771792	4.2899
776247	4.2899
780728	4.28991
785236	4.28991
789769	4.28991
794328	4.28991
798914	4.28991
803526	4.28991
808165	4.28991
812831	4.28991
817523	4.28991
822243	4.28991
826990	4.28991
831764	4.28991
836566	4.28991
841395	4.28991
846253	4.28991
851138	4.2899
856052	4.2899
860994	4.2899
865964	4.2899
870964	4.28989
875992	4.28989
881049	4.28989
886135	4.28988
891251	4.28988
896396	4.28987
901571	4.28987
906776	4.28987
912011	4.28986
917276	4.28986
922571	4.28985
927897	4.28985
933254	4.28984
938642	4.28983
944061	4.28983
949511	4.28982
954993	4.28982
960506	4.28981
966051	4.2898
971628	4.2898
977237	4.28979
982879	4.28978
988553	4.28978
994260	4.28977
1e+06	4.28976
1.00577e+06	4.28976
1.01158e+06	4.28975
1.01742e+06	4.28974
1.02329e+06	4.28974
1.0292e+06	4.28973
1.03514e+06	4.28972
1.04112e+06	4.28972
1.04713e+06	4.28971
1.05317e+06	4.2897
1.05925e+06	4.28969
1.06537e+06	4.28969
1.07152e+06	4.28968
1.07771e+06	4.28967
1.08393e+06	4.28967
1.09018e+06	4.28966
1.09648e+06	4.28965
1.10281e+06	4.28965
1.10917e+06	4.28964
1.11558e+06	4.28963
1.12202e+06	4.28963
1.1285e+06	4.28962
1.13501e+06	4.28961
1.14156e+06	4.28961
1.14815e+06	4.2896
1.15478e+06	4.28959
1.16145e+06	4.28959
1.16815e+06	4.28958
1.1749e+06	4.28957
1.18168e+06	4.28957
1.1885e+06	4.28956
1.19536e+06	4.28956
1.20226e+06	4.28955
1.20921e+06	4.28954
1.21619e+06	4.28954
1.22321e+06	4.28953
1.23027e+06	4.28953
1.23737e+06	4.28952
1.24451e+06	4.28952
1.2517e+06	4.28951
1.25893e+06	4.2895
1.26619e+06	4.2895
1.2735e+06	4.28949
1.28086e+06	4.28949
1.28825e+06	4.28948
1.29569e+06	4.28948
1.30317e+06	4.28947
1.31069e+06	4.28947
1.31826e+06	4.28946
1.32587e+06	4.28946
1.33352e+06	4.28945
1.34122e+06	4.28945
1.34896e+06	4.28944
1.35675e+06	4.28944
1.36458e+06	4.28943
1.37246e+06	4.28943
1.38038e+06	4.28942
1.38835e+06	4.28942
1.39637e+06	4.28941
1.40443e+06	4.28941
1.41254e+06	4.2894
1.42069e+06	4.2894
1.42889e+06	4.28939
1.43714e+06	4.28939
1.44544e+06	4.28938
1.45378e+06	4.28938
1.46218e+06	4.28938
1.47062e+06	4.28937
1.47911e+06	4.28937
1.48765e+06	4.28936
1.49624e+06	4.28936
1.50487e+06	4.28935
1.51356e+06	4.28935
1.5223e+06	4.28935
1.53109e+06	4.28934
1.53993e+06	4.28934
1.54882e+06	4.28933
1.55776e+06	4.28933
1.56675e+06	4.28933
1.5758e+06	4.28932
1.58489e+06	4.28932
1.59404e+06	4.28931
1.60325e+06	4.28931
1.6125e+06	4.28931
1.62181e+06	4.2893
1.63117e+06	4.2893
1.64059e+06	4.2893
1.65006e+06	4.28929
1.65959e+06	4.28929
1.66917e+06	4.28929
1.6788e+06	4.28928
1.6885e+06	4.28928
1.69824e+06	4.28927
1.70805e+06	4.28927
1.71791e+06	4.28927
1.72783e+06	4.28926
1.7378e+06	4.28926
1.74783e+06	4.28926
1.75792e+06	4.28925
1.76807e+06	4.28925
1.77828e+06	4.28925
1.78855e+06	4.28924
1.79887e+06	4.28924
1.80926e+06	4.28924
1.8197e+06	4.28923
1.83021e+06	4.28923
1.84077e+06	4.28923
1.8514e+06	4.28923
1.86209e+06	4.28922
1.87284e+06	4.28922
1.88365e+06	4.28922
1.89452e+06	4.28921
1.90546e+06	4.28921
1.91646e+06	4.28921
1.92752e+06	4.2892
1.93865e+06	4.2892
1.94984e+06	4.2892
1.9611e+06	4.2892
1.97242e+06	4.28919
1.98381e+06	4.28919
1.99526e+06	4.28919
2.00678e+06	4.28919
2.01837e+06	4.28918
2.03002e+06	4.28918
2.04174e+06	4.28918
2.05353e+06	4.28917
2.06538e+06	4.28917
2.0773e+06	4.28917
2.0893e+06	4.28917
2.10136e+06	4.28916
2.11349e+06	4.28916
2.12569e+06	4.28916
2.13796e+06	4.28916
2.1503e+06	4.28915
2.16272e+06	4.28915
2.1752e+06	4.28915
2.18776e+06	4.28915
2.20039e+06	4.28914
2.21309e+06	4.28914
2.22587e+06	4.28914
2.23872e+06	4.28914
2.25165e+06	4.28914
2.26464e+06	4.28913
2.27772e+06	4.28913
2.29087e+06	4.28913
2.30409e+06	4.28913
2.31739e+06	4.28912
2.33077e+06	4.28912
2.34423e+06	4.28912
2.35776e+06	4.28912
2.37137e+06	4.28912
2.38506e+06	4.28911
2.39883e+06	4.28911
2.41268e+06	4.28911
2.42661e+06	4.28911
2.44062e+06	4.28911
2.45471e+06	4.2891
2.46888e+06	4.2891
2.48313e+06	4.2891
2.49747e+06	4.2891
2.51189e+06	4.2891
2.52639e+06	4.28909
2.54097e+06	4.28909
2.55564e+06	4.28909
2.5704e+06	4.28909
2.58523e+06	4.28909
2.60016e+06	4.28908
2.61517e+06	4.28908
2.63027e+06	4.28908
2.64545e+06	4.28908
2.66073e+06	4.28908
2.67609e+06	4.28907
2.69153e+06	4.28907
2.70707e+06	4.28907
2.7227e+06	4.28907
2.73842e+06	4.28907
2.75423e+06	4.28907
2.77013e+06	4.28906
2.78612e+06	4.28906
2.80221e+06	4.28906
2.81838e+06	4.28906
2.83465e+06	4.28906
2.85102e+06	4.28906
2.86748e+06	4.28905
2.88403e+06	4.28905
2.90068e+06	4.28905
2.91743e+06	4.28905
2.93427e+06	4.28905
2.95121e+06	4.28905
2.96825e+06	4.28905
2.98538e+06	4.28904
3.00262e+06	4.28904
3.01995e+06	4.28904
3.03739e+06	4.28904
3.05492e+06	4.28904
3.07256e+06	4.28904
3.0903e+06	4.28903
3.10814e+06	4.28903
3.12608e+06	4.28903
3.14413e+06	4.28903
3.16228e+06	4.28903
3.18053e+06	4.28903
3.1989e+06	4.28903
3.21736e+06	4.28902
3.23594e+06	4.28902
3.25462e+06	4.28902
3.27341e+06	4.28902
3.2923e+06	4.28902
3.31131e+06	4.28902
3.33043e+06	4.28902
3.34965e+06	4.28902
3.36899e+06	4.28901
3.38844e+06	4.28901
3.408e+06	4.28901
3.42768e+06	4.28901
3.44747e+06	4.28901
3.46737e+06	4.28901
3.48739e+06	4.28901
3.50752e+06	4.28901
3.52777e+06	4.289
3.54813e+06	4.289
3.56862e+06	4.289
3.58922e+06	4.289
3.60994e+06	4.289
3.63078e+06	4.289
3.65174e+06	4.289
3.67282e+06	4.289
3.69403e+06	4.28899
3.71535e+06	4.28899
3.7368e+06	4.28899
3.75837e+06	4.28899
3.78007e+06	4.28899
3.80189e+06	4.28899
3.82384e+06	4.28899
3.84592e+06	4.28899
3.86812e+06	4.28899
3.89045e+06	4.28898
3.91291e+06	4.28898
3.9355e+06	4.28898
3.95822e+06	4.28898
3.98107e+06	4.28898
4.00405e+06	4.28898
4.02717e+06	4.28898
4.05042e+06	4.28898
4.0738e+06	4.28898
4.09732e+06	4.28898
4.12098e+06	4.28897
4.14477e+06	4.28897
4.16869e+06	4.28897
4.19276e+06	4.28897
4.21697e+06	4.28897
4.24131e+06	4.28897
4.2658e+06	4.28897
4.29042e+06	4.28897
4.31519e+06	4.28897
4.3401e+06	4.28897
4.36516e+06	4.28896
4.39036e+06	4.28896
4.4157e+06	4.28896
4.4412e+06	4.28896
4.46684e+06	4.28896
4.49262e+06	4.28896
4.51856e+06	4.28896
4.54465e+06	4.28896
4.57088e+06	4.28896
4.59727e+06	4.28896
4.62381e+06	4.28896
4.6505e+06	4.28895
4.67735e+06	4.28895
4.70435e+06	4.28895
4.73151e+06	4.28895
4.75883e+06	4.28895
4.7863e+06	4.28895
4.81393e+06	4.28895
4.84172e+06	4.28895
4.86968e+06	4.28895
4.89779e+06	4.28895
4.92606e+06	4.28895
4.9545e+06	4.28895
4.9831e+06	4.28895
5.01187e+06	4.28894
5.04081e+06	4.28894
5.06991e+06	4.28894
5.09918e+06	4.28894
5.12861e+06	4.28894
5.15822e+06	4.28894
5.188e+06	4.28894
5.21795e+06	4.28894
5.24807e+06	4.28894
5.27837e+06	4.28894
5.30884e+06	4.28894
5.33949e+06	4.28894
5.37032e+06	4.28894
5.40132e+06	4.28893
5.4325e+06	4.28893
5.46387e+06	4.28893
5.49541e+06	4.28893
5.52713e+06	4.28893
5.55904e+06	4.28893
5.59114e+06	4.28893
5.62341e+06	4.28893
5.65588e+06	4.28893
5.68853e+06	4.28893
5.72137e+06	4.28893
5.7544e+06	4.28893
5.78762e+06	4.28893
5.82103e+06	4.28893
5.85464e+06	4.28893
5.88844e+06	4.28892
5.92243e+06	4.28892
5.95662e+06	4.28892
5.99101e+06	4.28892
6.0256e+06	4.28892
6.06038e+06	4.28892
6.09537e+06	4.28892
6.13056e+06	4.28892
6.16595e+06	4.28892
6.20155e+06	4.28892
6.23735e+06	4.28892
6.27336e+06	4.28892
6.30957e+06	4.28892
6.346e+06	4.28892
6.38263e+06	4.28892
6.41948e+06	4.28892
6.45654e+06	4.28892
6.49382e+06	4.28891
6.53131e+06	4.28891
6.56901e+06	4.28891
6.60693e+06	4.28891
6.64508e+06	4.28891
6.68344e+06	4.28891
6.72202e+06	4.28891
6.76083e+06	4.28891
6.79986e+06	4.28891
6.83912e+06	4.28891
6.8786e+06	4.28891
6.91831e+06	4.28891
6.95825e+06	4.28891
6.99842e+06	4.28891
7.03882e+06	4.28891
7.07946e+06	4.28891
7.12033e+06	4.28891
7.16143e+06	4.28891
7.20278e+06	4.28891
7.24436e+06	4.2889
7.28618e+06	4.2889
7.32825e+06	4.2889
7.37055e+06	4.2889
7.4131e+06	4.2889
7.4559e+06	4.2889
7.49894e+06	4.2889
7.54223e+06	4.2889
7.58578e+06	4.2889
7.62957e+06	4.2889
7.67361e+06	4.2889
7.71792e+06	4.2889
7.76247e+06	4.2889
7.80728e+06	4.2889
7.85236e+06	4.2889
7.89769e+06	4.2889
7.94328e+06	4.2889
7.98914e+06	4.2889
8.03526e+06	4.2889
8.08165e+06	4.2889
8.12831e+06	4.2889
8.17523e+06	4.2889
8.22243e+06	4.28889
8.2699e+06	4.28889
8.31764e+06	4.28889
8.36566e+06	4.28889
8.41395e+06	4.28889
8.46253e+06	4.28889
8.51138e+06	4.28889
8.56052e+06	4.28889
8.60994e+06	4.28889
8.65964e+06	4.28889
8.70964e+06	4.28889
8.75992e+06	4.28889
8.81049e+06	4.28889
8.86135e+06	4.28889
8.91251e+06	4.28889
8.96396e+06	4.28889
9.01571e+06	4.28889
9.06776e+06	4.28889
9.12011e+06	4.28889
9.17276e+06	4.28889
9.22571e+06	4.28889
9.27897e+06	4.28889
9.33254e+06	4.28889
9.38642e+06	4.28889
9.44061e+06	4.28889
9.49511e+06	4.28889
9.54993e+06	4.28888
9.60506e+06	4.28888
9.66051e+06	4.28888
9.71628e+06	4.28888
9.77237e+06	4.28888
9.82879e+06	4.28888
9.88553e+06	4.28888
9.9426e+06	4.28888
1e+07	4.28888
