Stopping power dEdx from Ionisation for Be9[0.0] Z = 4 in G4_TISSUE_SOFT_ICRP, process name: ionIoni
E [MeV]	dEdx [MeV/mm]
0.001	30.3826
0.00100577	30.4701
0.00101158	30.558
0.00101742	30.646
0.00102329	30.7344
0.0010292	30.823
0.00103514	30.9118
0.00104112	31.0009
0.00104713	31.0903
0.00105317	31.1799
0.00105925	31.2697
0.00106537	31.3599
0.00107152	31.4503
0.00107771	31.5409
0.00108393	31.6318
0.00109018	31.723
0.00109648	31.8144
0.00110281	31.9061
0.00110917	31.9981
0.00111558	32.0903
0.00112202	32.1828
0.0011285	32.2756
0.00113501	32.3686
0.00114156	32.4619
0.00114815	32.5555
0.00115478	32.6493
0.00116145	32.7434
0.00116815	32.8378
0.0011749	32.9325
0.00118168	33.0274
0.0011885	33.1226
0.00119536	33.2181
0.00120226	33.3138
0.00120921	33.4098
0.00121619	33.5061
0.00122321	33.6027
0.00123027	33.6996
0.00123737	33.7967
0.00124451	33.8941
0.0012517	33.9918
0.00125893	34.0898
0.00126619	34.188
0.0012735	34.2866
0.00128086	34.3854
0.00128825	34.4845
0.00129569	34.5839
0.00130317	34.6836
0.00131069	34.7836
0.00131826	34.8838
0.00132587	34.9844
0.00133352	35.0852
0.00134122	35.1864
0.00134896	35.2878
0.00135675	35.3895
0.00136458	35.4915
0.00137246	35.5938
0.00138038	35.6964
0.00138835	35.7993
0.00139637	35.9025
0.00140443	36.0059
0.00141254	36.1097
0.00142069	36.2138
0.00142889	36.3182
0.00143714	36.4229
0.00144544	36.5279
0.00145378	36.6331
0.00146218	36.7387
0.00147062	36.8446
0.00147911	36.9508
0.00148765	37.0573
0.00149624	37.1642
0.00150487	37.2713
0.00151356	37.3787
0.0015223	37.4864
0.00153109	37.5945
0.00153993	37.7029
0.00154882	37.8115
0.00155776	37.9205
0.00156675	38.0298
0.0015758	38.1394
0.00158489	38.2494
0.00159404	38.3596
0.00160325	38.4702
0.0016125	38.5811
0.00162181	38.6923
0.00163117	38.8038
0.00164059	38.9156
0.00165006	39.0278
0.00165959	39.1403
0.00166917	39.2531
0.0016788	39.3663
0.0016885	39.4797
0.00169824	39.5935
0.00170805	39.7077
0.00171791	39.8221
0.00172783	39.9369
0.0017378	40.052
0.00174783	40.1674
0.00175792	40.2832
0.00176807	40.3993
0.00177828	40.5158
0.00178855	40.6326
0.00179887	40.7497
0.00180926	40.8671
0.0018197	40.9849
0.00183021	41.1031
0.00184077	41.2215
0.0018514	41.3404
0.00186209	41.4595
0.00187284	41.579
0.00188365	41.6989
0.00189452	41.8191
0.00190546	41.9396
0.00191646	42.0605
0.00192752	42.1817
0.00193865	42.3033
0.00194984	42.4252
0.0019611	42.5475
0.00197242	42.6702
0.00198381	42.7931
0.00199526	42.9165
0.00200678	43.0402
0.00201837	43.1643
0.00203002	43.2887
0.00204174	43.4134
0.00205353	43.5386
0.00206538	43.6641
0.0020773	43.7899
0.0020893	43.9161
0.00210136	44.0427
0.00211349	44.1697
0.00212569	44.297
0.00213796	44.4247
0.0021503	44.5527
0.00216272	44.6811
0.0021752	44.8099
0.00218776	44.9391
0.00220039	45.0686
0.00221309	45.1985
0.00222587	45.3288
0.00223872	45.4595
0.00225165	45.5905
0.00226464	45.7187
0.00227772	45.8473
0.00229087	45.9763
0.00230409	46.1056
0.00231739	46.2353
0.00233077	46.3654
0.00234423	46.4959
0.00235776	46.6267
0.00237137	46.7579
0.00238506	46.8895
0.00239883	47.0215
0.00241268	47.1538
0.00242661	47.2866
0.00244062	47.4197
0.00245471	47.5532
0.00246888	47.687
0.00248313	47.8213
0.00249747	47.9559
0.00251189	48.091
0.00252639	48.2264
0.00254097	48.3622
0.00255564	48.4984
0.0025704	48.635
0.00258523	48.772
0.00260016	48.9094
0.00261517	49.0472
0.00263027	49.1854
0.00264545	49.324
0.00266073	49.463
0.00267609	49.6023
0.00269153	49.7421
0.00270707	49.8823
0.0027227	50.0229
0.00273842	50.1639
0.00275423	50.3053
0.00277013	50.4471
0.00278612	50.5893
0.00280221	50.732
0.00281838	50.875
0.00283465	51.0185
0.00285102	51.1623
0.00286748	51.3066
0.00288403	51.4513
0.00290068	51.5964
0.00291743	51.742
0.00293427	51.8879
0.00295121	52.0343
0.00296825	52.1811
0.00298538	52.3283
0.00300262	52.476
0.00301995	52.6241
0.00303739	52.7726
0.00305492	52.9215
0.00307256	53.0709
0.0030903	53.2207
0.00310814	53.3709
0.00312608	53.5216
0.00314413	53.6727
0.00316228	53.8242
0.00318053	53.9762
0.0031989	54.1286
0.00321736	54.2814
0.00323594	54.4347
0.00325462	54.5884
0.00327341	54.7426
0.0032923	54.8973
0.00331131	55.0523
0.00333043	55.2078
0.00334965	55.3638
0.00336899	55.5202
0.00338844	55.6771
0.003408	55.8344
0.00342768	55.9922
0.00344747	56.1505
0.00346737	56.3092
0.00348739	56.4683
0.00350752	56.6279
0.00352777	56.788
0.00354813	56.9486
0.00356862	57.1096
0.00358922	57.271
0.00360994	57.433
0.00363078	57.5954
0.00365174	57.7583
0.00367282	57.9216
0.00369403	58.0854
0.00371535	58.2497
0.0037368	58.4145
0.00375837	58.5798
0.00378007	58.7455
0.00380189	58.9117
0.00382384	59.0784
0.00384592	59.2456
0.00386812	59.4132
0.00389045	59.5814
0.00391291	59.75
0.0039355	59.9191
0.00395822	60.0887
0.00398107	60.2588
0.00400405	60.4294
0.00402717	60.6005
0.00405042	60.7721
0.0040738	60.9442
0.00409732	61.1167
0.00412098	61.2898
0.00414477	61.4634
0.00416869	61.6375
0.00419276	61.8121
0.00421697	61.9872
0.00424131	62.1628
0.0042658	62.3389
0.00429042	62.5155
0.00431519	62.6927
0.0043401	62.8703
0.00436516	63.0485
0.00439036	63.2272
0.0044157	63.4064
0.0044412	63.5861
0.00446684	63.7663
0.00449262	63.9471
0.00451856	64.1284
0.00454465	64.3102
0.00457088	64.4926
0.00459727	64.6754
0.00462381	64.8588
0.0046505	65.0428
0.00467735	65.2272
0.00470435	65.4123
0.00473151	65.5978
0.00475883	65.7839
0.0047863	65.9705
0.00481393	66.1577
0.00484172	66.3454
0.00486968	66.5337
0.00489779	66.7225
0.00492606	66.9118
0.0049545	67.1017
0.0049831	67.2922
0.00501187	67.4832
0.00504081	67.6747
0.00506991	67.8669
0.00509918	68.0595
0.00512861	68.2528
0.00515822	68.4466
0.005188	68.6409
0.00521795	68.8359
0.00524807	69.0314
0.00527837	69.2274
0.00530884	69.4241
0.00533949	69.6213
0.00537032	69.8191
0.00540132	70.0174
0.0054325	70.2164
0.00546387	70.4159
0.00549541	70.616
0.00552713	70.8167
0.00555904	71.0179
0.00559114	71.2198
0.00562341	71.4222
0.00565588	71.6252
0.00568853	71.8288
0.00572137	72.033
0.0057544	72.2378
0.00578762	72.4432
0.00582103	72.6492
0.00585464	72.8558
0.00588844	73.063
0.00592243	73.2708
0.00595662	73.4792
0.00599101	73.6883
0.0060256	73.8979
0.00606038	74.1081
0.00609537	74.319
0.00613056	74.5304
0.00616595	74.7425
0.00620155	74.9552
0.00623735	75.1685
0.00627336	75.3825
0.00630957	75.597
0.006346	75.8122
0.00638263	76.028
0.00641948	76.2445
0.00645654	76.4615
0.00649382	76.6792
0.00653131	76.8976
0.00656901	77.1166
0.00660693	77.3362
0.00664508	77.5564
0.00668344	77.7773
0.00672202	77.9989
0.00676083	78.2211
0.00679986	78.4439
0.00683912	78.6674
0.0068786	78.8916
0.00691831	79.1164
0.00695825	79.3418
0.00699842	79.5679
0.00703882	79.7947
0.00707946	80.0221
0.00712033	80.2502
0.00716143	80.479
0.00720278	80.7084
0.00724436	80.9385
0.00728618	81.1693
0.00732825	81.4008
0.00737055	81.6329
0.0074131	81.8657
0.0074559	82.0992
0.00749894	82.3333
0.00754223	82.5682
0.00758578	82.8037
0.00762957	83.04
0.00767361	83.2769
0.00771792	83.5145
0.00776247	83.7528
0.00780728	83.9918
0.00785236	84.2315
0.00789769	84.4719
0.00794328	84.713
0.00798914	84.9548
0.00803526	85.1973
0.00808165	85.4405
0.00812831	85.6844
0.00817523	85.9291
0.00822243	86.1745
0.0082699	86.4205
0.00831764	86.6673
0.00836566	86.9149
0.00841395	87.1631
0.00846253	87.4121
0.00851138	87.6618
0.00856052	87.9122
0.00860994	88.1634
0.00865964	88.4153
0.00870964	88.6679
0.00875992	88.9213
0.00881049	89.1754
0.00886135	89.4303
0.00891251	89.6859
0.00896396	89.9422
0.00901571	90.1775
0.00906776	90.2372
0.00912011	90.2976
0.00917276	90.3586
0.00922571	90.4203
0.00927897	90.4826
0.00933254	90.5455
0.00938642	90.609
0.00944061	90.6731
0.00949511	90.7378
0.00954993	90.803
0.00960506	90.8689
0.00966051	90.9353
0.00971628	91.0023
0.00977237	91.0698
0.00982879	91.1379
0.00988553	91.2066
0.0099426	91.2757
0.01	91.3454
0.0100577	91.4156
0.0101158	91.4863
0.0101742	91.5575
0.0102329	91.6292
0.010292	91.7014
0.0103514	91.7741
0.0104112	91.8473
0.0104713	91.921
0.0105317	91.9951
0.0105925	92.0697
0.0106537	92.1447
0.0107152	92.2202
0.0107771	92.2962
0.0108393	92.3726
0.0109018	92.4494
0.0109648	92.5267
0.0110281	92.6044
0.0110917	92.6825
0.0111558	92.7611
0.0112202	92.84
0.011285	92.9194
0.0113501	92.9992
0.0114156	93.0794
0.0114815	93.1599
0.0115478	93.2409
0.0116145	93.3223
0.0116815	93.4041
0.011749	93.4862
0.0118168	93.5687
0.011885	93.6516
0.0119536	93.7349
0.0120226	93.8186
0.0120921	93.9026
0.0121619	93.987
0.0122321	94.0717
0.0123027	94.1568
0.0123737	94.2423
0.0124451	94.3281
0.012517	94.4143
0.0125893	94.5008
0.0126619	94.5877
0.012735	94.6749
0.0128086	94.7625
0.0128825	94.8504
0.0129569	94.9386
0.0130317	95.0272
0.0131069	95.1161
0.0131826	95.2053
0.0132587	95.2949
0.0133352	95.3848
0.0134122	95.475
0.0134896	95.5655
0.0135675	95.6564
0.0136458	95.7476
0.0137246	95.8391
0.0138038	95.9309
0.0138835	96.0231
0.0139637	96.1155
0.0140443	96.2083
0.0141254	96.3014
0.0142069	96.3948
0.0142889	96.4885
0.0143714	96.5826
0.0144544	96.6769
0.0145378	96.7716
0.0146218	96.8666
0.0147062	96.9618
0.0147911	97.0574
0.0148765	97.1533
0.0149624	97.2495
0.0150487	97.346
0.0151356	97.4428
0.015223	97.5399
0.0153109	97.6374
0.0153993	97.7351
0.0154882	97.8331
0.0155776	97.9315
0.0156675	98.0301
0.015758	98.1291
0.0158489	98.2284
0.0159404	98.3279
0.0160325	98.4278
0.016125	98.528
0.0162181	98.6285
0.0163117	98.7292
0.0164059	98.8303
0.0165006	98.9318
0.0165959	99.0335
0.0166917	99.1355
0.016788	99.2378
0.016885	99.3405
0.0169824	99.4434
0.0170805	99.5467
0.0171791	99.6502
0.0172783	99.7541
0.017378	99.8583
0.0174783	99.9628
0.0175792	100.068
0.0176807	100.173
0.0177828	100.278
0.0178855	100.384
0.0179887	100.49
0.0180926	100.597
0.018197	100.703
0.0183021	100.81
0.0184077	100.918
0.018514	101.025
0.0186209	101.133
0.0187284	101.242
0.0188365	101.35
0.0189452	101.459
0.0190546	101.569
0.0191646	101.678
0.0192752	101.788
0.0193865	101.899
0.0194984	102.01
0.019611	102.121
0.0197242	102.232
0.0198381	102.344
0.0199526	102.456
0.0200678	102.568
0.0201837	102.681
0.0203002	102.794
0.0204174	102.907
0.0205353	103.021
0.0206538	103.135
0.020773	103.25
0.020893	103.364
0.0210136	103.48
0.0211349	103.595
0.0212569	103.711
0.0213796	103.827
0.021503	103.944
0.0216272	104.061
0.021752	104.178
0.0218776	104.296
0.0220039	104.414
0.0221309	104.533
0.0222587	104.651
0.0223872	104.771
0.0225165	104.89
0.0226464	105.01
0.0227772	105.131
0.0229087	105.251
0.0230409	105.373
0.0231739	105.494
0.0233077	105.616
0.0234423	105.738
0.0235776	105.861
0.0237137	105.984
0.0238506	106.108
0.0239883	106.232
0.0241268	106.356
0.0242661	106.481
0.0244062	106.606
0.0245471	106.732
0.0246888	106.858
0.0248313	106.984
0.0249747	107.111
0.0251189	107.238
0.0252639	107.366
0.0254097	107.494
0.0255564	107.623
0.025704	107.752
0.0258523	107.881
0.0260016	108.011
0.0261517	108.141
0.0263027	108.272
0.0264545	108.403
0.0266073	108.535
0.0267609	108.667
0.0269153	108.8
0.0270707	108.933
0.027227	109.066
0.0273842	109.2
0.0275423	109.334
0.0277013	109.469
0.0278612	109.605
0.0280221	109.74
0.0281838	109.877
0.0283465	110.013
0.0285102	110.151
0.0286748	110.288
0.0288403	110.426
0.0290068	110.565
0.0291743	110.704
0.0293427	110.844
0.0295121	110.984
0.0296825	111.125
0.0298538	111.266
0.0300262	111.408
0.0301995	111.55
0.0303739	111.692
0.0305492	111.836
0.0307256	111.979
0.030903	112.123
0.0310814	112.268
0.0312608	112.413
0.0314413	112.559
0.0316228	112.706
0.0318053	112.852
0.031989	113
0.0321736	113.148
0.0323594	113.296
0.0325462	113.445
0.0327341	113.595
0.032923	113.745
0.0331131	113.895
0.0333043	114.047
0.0334965	114.198
0.0336899	114.351
0.0338844	114.503
0.03408	114.657
0.0342768	114.811
0.0344747	114.965
0.0346737	115.121
0.0348739	115.276
0.0350752	115.433
0.0352777	115.589
0.0354813	115.747
0.0356862	115.905
0.0358922	116.064
0.0360994	116.223
0.0363078	116.383
0.0365174	116.543
0.0367282	116.704
0.0369403	116.866
0.0371535	117.028
0.037368	117.191
0.0375837	117.354
0.0378007	117.518
0.0380189	117.683
0.0382384	117.848
0.0384592	118.014
0.0386812	118.181
0.0389045	118.348
0.0391291	118.516
0.039355	118.684
0.0395822	118.853
0.0398107	119.023
0.0400405	119.194
0.0402717	119.365
0.0405042	119.536
0.040738	119.709
0.0409732	119.882
0.0412098	120.055
0.0414477	120.23
0.0416869	120.405
0.0419276	120.58
0.0421697	120.756
0.0424131	120.933
0.042658	121.111
0.0429042	121.289
0.0431519	121.468
0.043401	121.648
0.0436516	121.829
0.0439036	122.01
0.044157	122.191
0.044412	122.374
0.0446684	122.557
0.0449262	122.741
0.0451856	122.926
0.0454465	123.111
0.0457088	123.297
0.0459727	123.484
0.0462381	123.671
0.046505	123.859
0.0467735	124.048
0.0470435	124.238
0.0473151	124.428
0.0475883	124.619
0.047863	124.811
0.0481393	125.003
0.0484172	125.196
0.0486968	125.39
0.0489779	125.585
0.0492606	125.781
0.049545	125.977
0.049831	126.174
0.0501187	126.372
0.0504081	126.57
0.0506991	126.769
0.0509918	126.969
0.0512861	127.17
0.0515822	127.372
0.05188	127.574
0.0521795	127.777
0.0524807	127.981
0.0527837	128.186
0.0530884	128.391
0.0533949	128.597
0.0537032	128.804
0.0540132	129.012
0.054325	129.221
0.0546387	129.43
0.0549541	129.641
0.0552713	129.852
0.0555904	130.063
0.0559114	130.276
0.0562341	130.489
0.0565588	130.704
0.0568853	130.919
0.0572137	131.135
0.057544	131.351
0.0578762	131.569
0.0582103	131.787
0.0585464	132.006
0.0588844	132.226
0.0592243	132.447
0.0595662	132.669
0.0599101	132.891
0.060256	133.115
0.0606038	133.339
0.0609537	133.564
0.0613056	133.79
0.0616595	134.017
0.0620155	134.244
0.0623735	134.473
0.0627336	134.702
0.0630957	134.932
0.06346	135.163
0.0638263	135.395
0.0641948	135.628
0.0645654	135.862
0.0649382	136.096
0.0653131	136.332
0.0656901	136.568
0.0660693	136.805
0.0664508	137.043
0.0668344	137.282
0.0672202	137.522
0.0676083	137.763
0.0679986	138.005
0.0683912	138.247
0.068786	138.491
0.0691831	138.735
0.0695825	138.98
0.0699842	139.226
0.0703882	139.474
0.0707946	139.722
0.0712033	139.97
0.0716143	140.22
0.0720278	140.471
0.0724436	140.723
0.0728618	140.975
0.0732825	141.229
0.0737055	141.483
0.074131	141.739
0.074559	141.995
0.0749894	142.252
0.0754223	142.511
0.0758578	142.77
0.0762957	143.03
0.0767361	143.291
0.0771792	143.553
0.0776247	143.816
0.0780728	144.08
0.0785236	144.344
0.0789769	144.61
0.0794328	144.877
0.0798914	145.145
0.0803526	145.413
0.0808165	145.683
0.0812831	145.954
0.0817523	146.225
0.0822243	146.498
0.082699	146.771
0.0831764	147.046
0.0836566	147.321
0.0841395	147.598
0.0846253	147.875
0.0851138	148.153
0.0856052	148.433
0.0860994	148.713
0.0865964	148.994
0.0870964	149.277
0.0875992	149.56
0.0881049	149.845
0.0886135	150.13
0.0891251	150.416
0.0896396	150.704
0.0901571	150.992
0.0906776	151.281
0.0912011	151.572
0.0917276	151.863
0.0922571	152.155
0.0927897	152.449
0.0933254	152.743
0.0938642	153.038
0.0944061	153.335
0.0949511	153.632
0.0954993	153.931
0.0960506	154.23
0.0966051	154.531
0.0971628	154.832
0.0977237	155.135
0.0982879	155.438
0.0988553	155.743
0.099426	156.048
0.1	156.355
0.100577	156.663
0.101158	156.971
0.101742	157.281
0.102329	157.592
0.10292	157.903
0.103514	158.216
0.104112	158.53
0.104713	158.845
0.105317	159.161
0.105925	159.478
0.106537	159.796
0.107152	160.115
0.107771	160.435
0.108393	160.756
0.109018	161.078
0.109648	161.402
0.110281	161.726
0.110917	162.051
0.111558	162.378
0.112202	162.705
0.11285	163.033
0.113501	163.363
0.114156	163.693
0.114815	164.025
0.115478	164.358
0.116145	164.691
0.116815	165.026
0.11749	165.362
0.118168	165.699
0.11885	166.037
0.119536	166.376
0.120226	166.716
0.120921	167.057
0.121619	167.399
0.122321	167.742
0.123027	168.086
0.123737	168.432
0.124451	168.778
0.12517	169.125
0.125893	169.474
0.126619	169.889
0.12735	170.41
0.128086	170.934
0.128825	171.46
0.129569	171.99
0.130317	172.522
0.131069	173.058
0.131826	173.596
0.132587	174.138
0.133352	174.683
0.134122	175.231
0.134896	175.782
0.135675	176.336
0.136458	176.894
0.137246	177.454
0.138038	178.018
0.138835	178.585
0.139637	179.156
0.140443	179.729
0.141254	180.306
0.142069	180.887
0.142889	181.47
0.143714	182.058
0.144544	182.648
0.145378	183.242
0.146218	183.839
0.147062	184.44
0.147911	185.045
0.148765	185.653
0.149624	186.264
0.150487	186.879
0.151356	187.498
0.15223	188.12
0.153109	188.746
0.153993	189.376
0.154882	190.009
0.155776	190.646
0.156675	191.287
0.15758	191.931
0.158489	192.58
0.159404	193.232
0.160325	193.888
0.16125	194.548
0.162181	195.212
0.163117	195.88
0.164059	196.552
0.165006	197.227
0.165959	197.907
0.166917	198.591
0.16788	199.279
0.16885	199.971
0.169824	200.667
0.170805	201.367
0.171791	202.072
0.172783	202.781
0.17378	203.494
0.174783	204.211
0.175792	204.933
0.176807	205.659
0.177828	206.389
0.178855	207.124
0.179887	207.863
0.180926	208.607
0.18197	209.355
0.183021	210.107
0.184077	210.865
0.18514	211.626
0.186209	212.393
0.187284	213.164
0.188365	213.94
0.189452	214.72
0.190546	215.506
0.191646	216.296
0.192752	217.091
0.193865	217.891
0.194984	218.695
0.19611	219.505
0.197242	220.32
0.198381	221.139
0.199526	221.964
0.200678	222.794
0.201837	223.628
0.203002	224.468
0.204174	225.314
0.205353	226.164
0.206538	227.02
0.20773	227.881
0.20893	228.747
0.210136	229.618
0.211349	230.496
0.212569	231.378
0.213796	232.266
0.21503	233.16
0.216272	234.059
0.21752	234.963
0.218776	235.874
0.220039	236.79
0.221309	237.712
0.222587	238.639
0.223872	239.572
0.225165	240.512
0.226464	241.448
0.227772	242.275
0.229087	243.107
0.230409	243.942
0.231739	244.781
0.233077	245.623
0.234423	246.469
0.235776	247.319
0.237137	248.173
0.238506	249.03
0.239883	249.891
0.241268	250.755
0.242661	251.624
0.244062	252.496
0.245471	253.371
0.246888	254.251
0.248313	255.134
0.249747	256.021
0.251189	256.912
0.252639	257.806
0.254097	258.704
0.255564	259.606
0.25704	260.512
0.258523	261.421
0.260016	262.334
0.261517	263.251
0.263027	264.172
0.264545	265.096
0.266073	266.025
0.267609	266.956
0.269153	267.892
0.270707	268.832
0.27227	269.775
0.273842	270.722
0.275423	271.673
0.277013	272.628
0.278612	273.586
0.280221	274.548
0.281838	275.514
0.283465	276.484
0.285102	277.457
0.286748	278.435
0.288403	279.416
0.290068	280.4
0.291743	281.389
0.293427	282.381
0.295121	283.377
0.296825	284.377
0.298538	285.381
0.300262	286.388
0.301995	287.399
0.303739	288.414
0.305492	289.433
0.307256	290.455
0.30903	291.481
0.310814	292.511
0.312608	293.544
0.314413	294.582
0.316228	295.623
0.318053	296.667
0.31989	297.715
0.321736	298.767
0.323594	299.823
0.325462	300.882
0.327341	301.945
0.32923	303.012
0.331131	304.082
0.333043	305.156
0.334965	306.234
0.336899	307.315
0.338844	308.4
0.3408	309.488
0.342768	310.58
0.344747	311.676
0.346737	312.775
0.348739	313.877
0.350752	314.983
0.352777	316.093
0.354813	317.206
0.356862	318.323
0.358922	319.443
0.360994	320.566
0.363078	321.694
0.365174	322.824
0.367282	323.958
0.369403	325.095
0.371535	326.236
0.37368	327.38
0.375837	328.527
0.378007	329.678
0.380189	330.832
0.382384	331.989
0.384592	333.15
0.386812	334.313
0.389045	335.48
0.391291	336.651
0.39355	337.824
0.395822	339
0.398107	340.18
0.400405	341.363
0.402717	342.549
0.405042	343.738
0.40738	344.93
0.409732	346.125
0.412098	347.323
0.414477	348.524
0.416869	349.727
0.419276	350.934
0.421697	352.144
0.424131	353.356
0.42658	354.572
0.429042	355.79
0.431519	357.011
0.43401	358.234
0.436516	359.46
0.439036	360.689
0.44157	361.921
0.44412	363.155
0.446684	364.392
0.449262	365.631
0.451856	366.873
0.454465	368.117
0.457088	369.364
0.459727	370.613
0.462381	371.864
0.46505	373.118
0.467735	374.374
0.470435	375.632
0.473151	376.893
0.475883	378.155
0.47863	379.42
0.481393	380.687
0.484172	381.956
0.486968	383.226
0.489779	384.499
0.492606	385.774
0.49545	387.05
0.49831	388.329
0.501187	389.609
0.504081	390.891
0.506991	392.174
0.509918	393.459
0.512861	394.746
0.515822	396.034
0.5188	397.324
0.521795	398.615
0.524807	399.908
0.527837	401.202
0.530884	402.497
0.533949	403.794
0.537032	405.091
0.540132	406.39
0.54325	407.69
0.546387	408.991
0.549541	410.292
0.552713	411.595
0.555904	412.899
0.559114	414.203
0.562341	415.508
0.565588	416.814
0.568853	418.12
0.572137	419.427
0.57544	420.735
0.578762	422.042
0.582103	423.351
0.585464	424.659
0.588844	425.968
0.592243	427.277
0.595662	428.586
0.599101	429.895
0.60256	431.205
0.606038	432.514
0.609537	433.823
0.613056	435.131
0.616595	436.44
0.620155	437.748
0.623735	439.056
0.627336	440.363
0.630957	441.67
0.6346	442.976
0.638263	444.281
0.641948	445.586
0.645654	446.89
0.649382	448.193
0.653131	449.495
0.656901	450.796
0.660693	452.095
0.664508	453.394
0.668344	454.691
0.672202	455.987
0.676083	457.282
0.679986	458.575
0.683912	459.866
0.68786	461.156
0.691831	462.444
0.695825	463.731
0.699842	465.015
0.703882	466.298
0.707946	467.578
0.712033	468.856
0.716143	470.132
0.720278	471.406
0.724436	472.677
0.728618	473.946
0.732825	475.213
0.737055	476.477
0.74131	477.738
0.74559	478.996
0.749894	480.251
0.754223	481.504
0.758578	482.753
0.762957	484
0.767361	485.243
0.771792	486.483
0.776247	487.719
0.780728	488.952
0.785236	490.182
0.789769	491.408
0.794328	492.63
0.798914	493.848
0.803526	495.062
0.808165	496.273
0.812831	497.479
0.817523	498.682
0.822243	499.879
0.82699	501.073
0.831764	502.262
0.836566	503.447
0.841395	504.627
0.846253	505.803
0.851138	506.973
0.856052	508.139
0.860994	509.3
0.865964	510.456
0.870964	511.606
0.875992	512.752
0.881049	513.892
0.886135	515.027
0.891251	516.156
0.896396	517.28
0.901571	518.398
0.906776	519.51
0.912011	520.616
0.917276	521.717
0.922571	522.811
0.927897	523.9
0.933254	524.982
0.938642	526.058
0.944061	527.127
0.949511	528.19
0.954993	529.247
0.960506	530.297
0.966051	531.34
0.971628	532.376
0.977237	533.406
0.982879	534.428
0.988553	535.444
0.99426	536.452
1	537.453
1.00577	538.447
1.01158	539.433
1.01742	540.412
1.02329	541.383
1.0292	542.347
1.03514	543.302
1.04112	544.25
1.04713	545.191
1.05317	546.123
1.05925	547.047
1.06537	547.963
1.07152	548.87
1.07771	549.77
1.08393	550.661
1.09018	551.543
1.09648	552.417
1.10281	553.282
1.10917	554.139
1.11558	554.987
1.12202	555.826
1.1285	556.656
1.13501	557.477
1.14156	558.289
1.14815	559.092
1.15478	559.886
1.16145	560.67
1.16815	561.445
1.1749	562.211
1.18168	562.967
1.1885	563.714
1.19536	564.451
1.20226	565.178
1.20921	565.895
1.21619	566.603
1.22321	567.301
1.23027	567.989
1.23737	568.667
1.24451	569.335
1.2517	569.992
1.25893	570.64
1.26619	571.277
1.2735	571.904
1.28086	572.521
1.28825	573.127
1.29569	573.723
1.30317	574.308
1.31069	574.883
1.31826	575.447
1.32587	576
1.33352	576.543
1.34122	577.075
1.34896	577.596
1.35675	578.106
1.36458	578.606
1.37246	579.094
1.38038	579.572
1.38835	580.039
1.39637	580.494
1.40443	580.938
1.41254	581.372
1.42069	581.794
1.42889	582.205
1.43714	582.605
1.44544	582.993
1.45378	583.37
1.46218	583.736
1.47062	584.091
1.47911	584.434
1.48765	584.766
1.49624	585.087
1.50487	585.396
1.51356	585.693
1.5223	585.979
1.53109	586.254
1.53993	586.517
1.54882	586.769
1.55776	587.009
1.56675	587.237
1.5758	587.454
1.58489	587.66
1.59404	587.854
1.60325	588.036
1.6125	588.207
1.62181	588.366
1.63117	588.513
1.64059	588.649
1.65006	588.773
1.65959	588.886
1.66917	588.987
1.6788	589.077
1.6885	589.154
1.69824	589.221
1.70805	589.276
1.71791	589.319
1.72783	589.35
1.7378	589.371
1.74783	589.379
1.75792	589.376
1.76807	589.362
1.77828	589.336
1.78855	589.298
1.79887	589.249
1.80926	589.189
1.8197	589.118
1.83021	589.034
1.84077	588.94
1.8514	588.834
1.86209	588.717
1.87284	588.589
1.88365	588.449
1.89452	588.298
1.90546	588.136
1.91646	587.963
1.92752	587.779
1.93865	587.584
1.94984	587.377
1.9611	587.16
1.97242	586.931
1.98381	586.692
1.99526	586.442
2.00678	586.181
2.01837	585.909
2.03002	585.626
2.04174	585.333
2.05353	585.028
2.06538	584.714
2.0773	584.389
2.0893	584.053
2.10136	583.1
2.11349	582.754
2.12569	582.398
2.13796	582.031
2.1503	581.654
2.16272	581.266
2.1752	580.868
2.18776	580.46
2.20039	580.041
2.21309	579.613
2.22587	579.174
2.23872	578.725
2.25165	578.267
2.26464	577.799
2.27772	577.32
2.29087	576.832
2.30409	576.335
2.31739	575.828
2.33077	575.311
2.34423	574.785
2.35776	574.249
2.37137	573.704
2.38506	573.15
2.39883	572.586
2.41268	572.014
2.42661	571.432
2.44062	570.842
2.45471	570.243
2.46888	569.634
2.48313	569.017
2.49747	568.392
2.51189	567.758
2.52639	567.115
2.54097	566.464
2.55564	565.804
2.5704	565.137
2.58523	564.461
2.60016	563.777
2.61517	563.085
2.63027	562.385
2.64545	561.677
2.66073	560.961
2.67609	560.238
2.69153	559.507
2.70707	558.768
2.7227	558.022
2.73842	557.269
2.75423	556.508
2.77013	555.74
2.78612	554.965
2.80221	554.183
2.81838	553.394
2.83465	552.598
2.85102	551.795
2.86748	550.986
2.88403	550.17
2.90068	549.347
2.91743	548.518
2.93427	547.683
2.95121	546.841
2.96825	545.993
2.98538	545.139
3.00262	544.279
3.01995	543.413
3.03739	542.541
3.05492	541.664
3.07256	540.781
3.0903	539.892
3.10814	538.997
3.12608	538.097
3.14413	537.192
3.16228	536.282
3.18053	535.366
3.1989	534.446
3.21736	533.52
3.23594	532.589
3.25462	531.654
3.27341	530.714
3.2923	529.769
3.31131	528.82
3.33043	527.866
3.34965	526.907
3.36899	525.945
3.38844	524.978
3.408	524.007
3.42768	523.031
3.44747	522.052
3.46737	521.069
3.48739	520.082
3.50752	519.091
3.52777	518.097
3.54813	517.099
3.56862	516.097
3.58922	515.093
3.60994	514.084
3.63078	513.073
3.65174	512.058
3.67282	511.04
3.69403	510.019
3.71535	508.995
3.7368	507.968
3.75837	506.938
3.78007	505.906
3.80189	504.871
3.82384	503.833
3.84592	502.793
3.86812	501.75
3.89045	500.705
3.91291	499.657
3.9355	498.608
3.95822	497.556
3.98107	496.502
4.00405	495.446
4.02717	494.388
4.05042	493.328
4.0738	492.266
4.09732	491.203
4.12098	490.138
4.14477	489.071
4.16869	488.003
4.19276	486.933
4.21697	485.862
4.24131	484.789
4.2658	483.716
4.29042	482.641
4.31519	481.564
4.3401	480.487
4.36516	479.408
4.39036	478.329
4.4157	477.248
4.4412	476.167
4.46684	475.085
4.49262	474.002
4.51856	472.918
4.54465	471.834
4.57088	470.749
4.59727	469.664
4.62381	468.578
4.6505	467.492
4.67735	466.405
4.70435	465.318
4.73151	464.23
4.75883	463.143
4.7863	462.055
4.81393	460.967
4.84172	459.879
4.86968	458.79
4.89779	457.702
4.92606	456.614
4.9545	455.526
4.9831	454.438
5.01187	453.35
5.04081	452.263
5.06991	451.175
5.09918	450.088
5.12861	449.002
5.15822	447.915
5.188	446.83
5.21795	445.744
5.24807	444.659
5.27837	443.575
5.30884	442.491
5.33949	441.408
5.37032	440.325
5.40132	439.243
5.4325	438.162
5.46387	437.081
5.49541	436.001
5.52713	434.922
5.55904	433.844
5.59114	432.766
5.62341	431.69
5.65588	430.614
5.68853	429.54
5.72137	428.466
5.7544	427.393
5.78762	426.322
5.82103	425.251
5.85464	424.181
5.88844	423.113
5.92243	422.045
5.95662	420.979
5.99101	419.914
6.0256	418.85
6.06038	417.787
6.09537	416.726
6.13056	415.665
6.16595	414.606
6.20155	413.548
6.23735	412.492
6.27336	411.437
6.30957	410.383
6.346	409.33
6.38263	408.279
6.41948	407.229
6.45654	406.181
6.49382	405.134
6.53131	404.088
6.56901	403.044
6.60693	402.001
6.64508	400.96
6.68344	399.92
6.72202	398.882
6.76083	397.845
6.79986	396.809
6.83912	395.775
6.8786	394.743
6.91831	393.712
6.95825	392.683
6.99842	391.655
7.03882	390.629
7.07946	389.604
7.12033	388.581
7.16143	387.559
7.20278	386.539
7.24436	385.52
7.28618	384.503
7.32825	383.488
7.37055	382.474
7.4131	381.462
7.4559	380.452
7.49894	379.443
7.54223	378.435
7.58578	377.43
7.62957	376.425
7.67361	375.423
7.71792	374.422
7.76247	373.422
7.80728	372.425
7.85236	371.429
7.89769	370.434
7.94328	369.441
7.98914	368.45
8.03526	367.46
8.08165	366.472
8.12831	365.486
8.17523	364.501
8.22243	363.518
8.2699	362.536
8.31764	361.556
8.36566	360.578
8.41395	359.601
8.46253	358.626
8.51138	357.652
8.56052	356.68
8.60994	355.71
8.65964	354.741
8.70964	353.773
8.75992	352.808
8.81049	351.844
8.86135	350.881
8.91251	349.92
8.96396	348.961
9.01571	348.003
9.06776	347.047
9.12011	346.092
9.17276	345.139
9.22571	344.187
9.27897	343.237
9.33254	342.289
9.38642	341.342
9.44061	340.396
9.49511	339.452
9.54993	338.51
9.60506	337.569
9.66051	336.63
9.71628	335.692
9.77237	334.755
9.82879	333.821
9.88553	332.887
9.9426	331.955
10	331.025
10.0577	330.096
10.1158	329.168
10.1742	328.242
10.2329	327.318
10.292	326.395
10.3514	325.473
10.4112	324.553
10.4713	323.634
10.5317	322.717
10.5925	321.801
10.6537	320.887
10.7152	319.973
10.7771	319.062
10.8393	318.152
10.9018	317.243
10.9648	316.335
11.0281	315.429
11.0917	314.525
11.1558	313.621
11.2202	312.72
11.285	311.819
11.3501	310.92
11.4156	310.022
11.4815	309.134
11.5478	308.239
11.6145	307.344
11.6815	306.451
11.749	305.56
11.8168	304.67
11.885	303.781
11.9536	302.893
12.0226	302.007
12.0921	301.123
12.1619	300.239
12.2321	299.357
12.3027	298.476
12.3737	297.597
12.4451	296.719
12.517	295.842
12.5893	294.967
12.6619	294.093
12.735	293.22
12.8086	292.349
12.8825	291.478
12.9569	290.609
13.0317	289.742
13.1069	288.875
13.1826	288.01
13.2587	287.147
13.3352	286.284
13.4122	285.423
13.4896	284.563
13.5675	283.704
13.6458	282.847
13.7246	281.991
13.8038	281.136
13.8835	280.282
13.9637	279.43
14.0443	278.579
14.1254	277.729
14.2069	276.88
14.2889	276.033
14.3714	275.186
14.4544	274.342
14.5378	273.498
14.6218	272.655
14.7062	271.814
14.7911	270.974
14.8765	270.136
14.9624	269.298
15.0487	268.462
15.1356	267.627
15.223	266.793
15.3109	265.961
15.3993	265.129
15.4882	264.299
15.5776	263.47
15.6675	262.643
15.758	261.816
15.8489	260.991
15.9404	260.167
16.0325	259.345
16.125	258.523
16.2181	257.703
16.3117	256.884
16.4059	256.067
16.5006	255.25
16.5959	254.435
16.6917	253.621
16.788	252.808
16.885	251.997
16.9824	251.187
17.0805	250.378
17.1791	249.57
17.2783	248.764
17.378	247.958
17.4783	247.154
17.5792	246.352
17.6807	245.55
17.7828	244.75
17.8855	243.951
17.9887	243.133
18.0926	242.314
18.197	241.496
18.3021	240.679
18.4077	239.863
18.514	239.047
18.6209	238.246
18.7284	237.432
18.8365	236.619
18.9452	235.807
19.0546	234.995
19.1646	234.184
19.2752	233.374
19.3865	232.565
19.4984	231.757
19.611	230.95
19.7242	230.143
19.8381	229.338
19.9526	228.563
20.0678	227.759
20.1837	226.965
20.3002	226.163
20.4174	225.363
20.5353	224.563
20.6538	223.764
20.773	222.966
20.893	222.169
21.0136	221.373
21.1349	220.579
21.2569	219.785
21.3796	218.993
21.503	218.201
21.6272	217.411
21.752	216.622
21.8776	215.96
22.0039	215.172
22.1309	214.385
22.2587	213.6
22.3872	212.815
22.5165	211.607
22.6464	210.857
22.7772	210.07
22.9087	209.284
23.0409	208.5
23.1739	207.717
23.3077	206.936
23.4423	206.157
23.5776	205.379
23.7137	204.602
23.8506	203.827
23.9883	203.053
24.1268	202.281
24.2661	201.51
24.4062	200.74
24.5471	199.972
24.6888	199.205
24.8313	198.44
24.9747	197.676
25.1189	196.914
25.2639	196.153
25.4097	195.394
25.5564	194.636
25.704	193.88
25.8523	193.125
26.0016	192.372
26.1517	191.621
26.3027	190.87
26.4545	190.122
26.6073	189.375
26.7609	188.748
26.9153	188.004
27.0707	187.261
27.227	186.521
27.3842	185.781
27.5423	185.044
27.7013	184.308
27.8612	183.573
28.0221	182.835
28.1838	182.104
28.3465	181.375
28.5102	180.647
28.6748	179.921
28.8403	179.197
29.0068	178.474
29.1743	177.753
29.3427	177.034
29.5121	176.317
29.6825	175.602
29.8538	174.888
30.0262	174.177
30.1995	173.467
30.3739	172.766
30.5492	172.059
30.7256	171.355
30.903	170.652
31.0814	169.951
31.2608	169.253
31.4413	168.556
31.6228	167.879
31.8053	167.203
31.989	166.528
32.1736	165.855
32.3594	165.184
32.5462	164.515
32.7341	163.847
32.923	163.181
33.1131	162.516
33.3043	161.854
33.4965	161.193
33.6899	160.534
33.8844	159.876
34.08	159.22
34.2768	158.566
34.4747	157.914
34.6737	157.264
34.8739	156.615
35.0752	155.968
35.2777	155.323
35.4813	154.68
35.6862	154.039
35.8922	153.399
36.0994	152.762
36.3078	152.126
36.5174	151.492
36.7282	150.901
36.9403	150.27
37.1535	149.641
37.368	149.014
37.5837	148.388
37.8007	147.765
38.0189	147.144
38.2384	146.524
38.4592	145.906
38.6812	145.29
38.9045	144.677
39.1291	144.065
39.355	143.455
39.5822	142.847
39.8107	142.241
40.0405	141.732
40.2717	141.129
40.5042	140.528
40.738	139.928
40.9732	139.331
41.2098	138.735
41.4477	138.142
41.6869	137.551
41.9276	136.961
42.1697	136.374
42.4131	135.788
42.658	135.205
42.9042	134.623
43.1519	134.044
43.401	133.466
43.6516	132.891
43.9036	132.317
44.157	131.746
44.412	131.176
44.6684	130.609
44.9262	130.043
45.1856	129.48
45.4465	128.918
45.7088	128.359
45.9727	127.801
46.2381	127.246
46.505	126.692
46.7735	126.141
47.0435	125.591
47.3151	125.044
47.5883	124.498
47.863	123.954
48.1393	123.413
48.4172	122.873
48.6968	122.336
48.9779	121.8
49.2606	121.266
49.545	120.735
49.831	120.205
50.1187	119.677
50.4081	119.152
50.6991	118.63
50.9918	118.108
51.2861	117.589
51.5822	117.095
51.88	116.579
52.1795	116.065
52.4807	115.552
52.7837	115.042
53.0884	114.533
53.3949	114.027
53.7032	113.522
54.0132	113.019
54.325	112.519
54.6387	112.02
54.9541	111.523
55.2713	111.028
55.5904	110.535
55.9114	110.044
56.2341	109.555
56.5588	109.067
56.8853	108.582
57.2137	108.099
57.544	107.617
57.8762	107.137
58.2103	106.66
58.5464	106.184
58.8844	105.71
59.2243	105.238
59.5662	104.767
59.9101	104.299
60.256	103.833
60.6038	103.368
60.9537	102.905
61.3056	102.444
61.6595	101.985
62.0155	101.528
62.3735	101.073
62.7336	100.619
63.0957	100.168
63.46	99.7178
63.8263	99.2699
64.1948	98.8237
64.5654	98.3793
64.9382	97.9368
65.3131	97.496
65.6901	97.0571
66.0693	96.6199
66.4508	96.1845
66.8344	95.751
67.2202	95.3497
67.6083	94.9191
67.9986	94.4903
68.3912	94.0633
68.786	93.638
69.1831	93.2145
69.5825	92.7927
69.9842	92.3727
70.3882	91.9545
70.7946	91.5379
71.2033	91.1245
71.6143	90.7114
72.0278	90.3001
72.4436	89.8904
72.8618	89.4825
73.2825	89.0762
73.7055	88.6718
74.131	88.269
74.559	87.868
74.9894	87.4687
75.4223	87.071
75.8578	86.675
76.2957	86.2806
76.7361	85.888
77.1792	85.4969
77.6247	85.1076
78.0728	84.7199
78.5236	84.3338
78.9769	83.9493
79.4328	83.5665
79.8914	83.1853
80.3526	82.8057
80.8165	82.4278
81.2831	82.0514
81.7523	81.6766
82.2243	81.3035
82.699	80.9319
83.1764	80.5619
83.6566	80.1935
84.1395	79.8267
84.6253	79.4614
85.1138	79.0977
85.6052	78.7356
86.0994	78.375
86.5964	78.016
87.0964	77.6585
87.5992	77.3026
88.1049	76.9481
88.6135	76.5953
89.1251	76.2439
89.6396	75.8941
90.1571	75.5457
90.6776	75.1989
91.2011	74.8536
91.7276	74.5098
92.2571	74.1674
92.7897	73.8266
93.3254	73.4873
93.8642	73.1494
94.4061	72.8312
94.9511	72.496
95.4993	72.1622
96.0506	71.83
96.6051	71.4991
97.1628	71.1697
97.7237	70.8417
98.2879	70.5152
98.8553	70.1901
99.426	69.8664
100	69.5442
100.577	69.2234
101.158	68.904
101.742	68.5859
102.329	68.2693
102.92	67.9541
103.514	67.6403
104.112	67.3279
104.713	67.0168
105.317	66.7071
105.925	66.3988
106.537	66.0919
107.152	65.7863
107.771	65.4821
108.393	65.1792
109.018	64.8777
109.648	64.5775
110.281	64.2786
110.917	63.9811
111.558	63.6849
112.202	63.39
112.85	63.0965
113.501	62.8043
114.156	62.5134
114.815	62.2237
115.478	61.9354
116.145	61.6483
116.815	61.3626
117.49	61.0781
118.168	60.7949
118.85	60.5129
119.536	60.2323
120.226	59.9529
120.921	59.6747
121.619	59.3978
122.321	59.1221
123.027	58.8477
123.737	58.5745
124.451	58.3026
125.17	58.0319
125.893	57.7624
126.619	57.4941
127.35	57.227
128.086	56.9612
128.825	56.6965
129.569	56.433
130.317	56.1708
131.069	55.9097
131.826	55.6498
132.587	55.3911
133.352	55.1336
134.122	54.8772
134.896	54.6219
135.675	54.3679
136.458	54.1151
137.246	53.8634
138.038	53.6129
138.835	53.3635
139.637	53.1152
140.443	52.8681
141.254	52.6221
142.069	52.3773
142.889	52.1335
143.714	51.8909
144.544	51.6493
145.378	51.4089
146.218	51.1695
147.062	50.9313
147.911	50.6942
148.765	50.4581
149.624	50.2231
150.487	49.9892
151.356	49.7564
152.23	49.5246
153.109	49.2939
153.993	49.0643
154.882	48.8357
155.776	48.6082
156.675	48.3817
157.58	48.1562
158.489	47.9318
159.404	47.7084
160.325	47.486
161.25	47.2647
162.181	47.0444
163.117	46.8251
164.059	46.6068
165.006	46.3895
165.959	46.1732
166.917	45.9579
167.88	45.7436
168.85	45.5303
169.824	45.318
170.805	45.1067
171.791	44.8963
172.783	44.6869
173.78	44.4785
174.783	44.271
175.792	44.0646
176.807	43.859
177.828	43.6544
178.855	43.4508
179.887	43.2481
180.926	43.0463
181.97	42.8455
183.021	42.6456
184.077	42.4467
185.14	42.2487
186.209	42.0516
187.284	41.8554
188.365	41.6601
189.452	41.4657
190.546	41.2722
191.646	41.0797
192.752	40.888
193.865	40.6973
194.984	40.5074
196.11	40.3184
197.242	40.1303
198.381	39.943
199.526	39.7567
200.678	39.5712
201.837	39.3866
203.002	39.2028
204.174	39.0199
205.353	38.8379
206.538	38.6567
207.73	38.4763
208.93	38.2968
210.136	38.1182
211.349	37.9404
212.569	37.7634
213.796	37.5872
215.03	37.4119
216.272	37.2374
217.52	37.0637
218.776	36.8908
220.039	36.7188
221.309	36.5475
222.587	36.3771
223.872	36.2075
225.165	36.0386
226.464	35.8706
227.772	35.7033
229.087	35.5368
230.409	35.3711
231.739	35.2062
233.077	35.0421
234.423	34.8788
235.776	34.7162
237.137	34.5544
238.506	34.3934
239.883	34.2331
241.268	34.0736
242.661	33.9148
244.062	33.7568
245.471	33.5995
246.888	33.443
248.313	33.2872
249.747	33.1322
251.189	32.9779
252.639	32.8243
254.097	32.6715
255.564	32.5194
257.04	32.368
258.523	32.2173
260.016	32.0673
261.517	31.9181
263.027	31.7695
264.545	31.6217
266.073	31.4746
267.609	31.3281
269.153	31.1824
270.707	31.0374
272.27	30.893
273.842	30.7493
275.423	30.6063
277.013	30.464
278.612	30.3224
280.221	30.1815
281.838	30.0412
283.465	29.9016
285.102	29.7627
286.748	29.6244
288.403	29.4868
290.068	29.3499
291.743	29.2136
293.427	29.0779
295.121	28.9429
296.825	28.8086
298.538	28.6749
300.262	28.5418
301.995	28.4094
303.739	28.2776
305.492	28.1464
307.256	28.0159
309.03	27.886
310.814	27.7567
312.608	27.628
314.413	27.5
316.228	27.3725
318.053	27.2457
319.89	27.1195
321.736	26.9939
323.594	26.8689
325.462	26.7445
327.341	26.6207
329.23	26.4975
331.131	26.3749
333.043	26.2528
334.965	26.1314
336.899	26.0105
338.844	25.8903
340.8	25.7706
342.768	25.6515
344.747	25.5329
346.737	25.415
348.739	25.2976
350.752	25.1807
352.777	25.0645
354.813	24.9488
356.862	24.8336
358.922	24.719
360.994	24.605
363.078	24.4915
365.174	24.3786
367.282	24.2662
369.403	24.1543
371.535	24.043
373.68	23.9322
375.837	23.822
378.007	23.7123
380.189	23.6031
382.384	23.4945
384.592	23.3864
386.812	23.2788
389.045	23.1718
391.291	23.0652
393.55	22.9592
395.822	22.8537
398.107	22.7487
400.405	22.6442
402.717	22.5402
405.042	22.4367
407.38	22.3338
409.732	22.2313
412.098	22.1293
414.477	22.0278
416.869	21.9269
419.276	21.8264
421.697	21.7264
424.131	21.6269
426.58	21.5278
429.042	21.4293
431.519	21.3312
434.01	21.2336
436.516	21.1365
439.036	21.0399
441.57	20.9437
444.12	20.848
446.684	20.7528
449.262	20.658
451.856	20.5637
454.465	20.4699
457.088	20.3765
459.727	20.2836
462.381	20.1911
465.05	20.0991
467.735	20.0076
470.435	19.9164
473.151	19.8258
475.883	19.7356
478.63	19.6458
481.393	19.5564
484.172	19.4675
486.968	19.3791
489.779	19.291
492.606	19.2034
495.45	19.1163
498.31	19.0295
501.187	18.9432
504.081	18.8573
506.991	18.7718
509.918	18.6868
512.861	18.6022
515.822	18.518
518.8	18.4342
521.795	18.3508
524.807	18.2678
527.837	18.1852
530.884	18.1031
533.949	18.0213
537.032	17.94
540.132	17.859
543.25	17.7785
546.387	17.6983
549.541	17.6186
552.713	17.5392
555.904	17.4602
559.114	17.3816
562.341	17.3035
565.588	17.2257
568.853	17.1482
572.137	17.0712
575.44	16.9945
578.762	16.9183
582.103	16.8424
585.464	16.7668
588.844	16.6917
592.243	16.6169
595.662	16.5425
599.101	16.4685
602.56	16.3948
606.038	16.3215
609.537	16.2486
613.056	16.176
616.595	16.1038
620.155	16.0319
623.735	15.9604
627.336	15.8893
630.957	15.8185
634.6	15.7481
638.263	15.678
641.948	15.6082
645.654	15.5388
649.382	15.4698
653.131	15.4011
656.901	15.3327
660.693	15.2647
664.508	15.197
668.344	15.1297
672.202	15.0627
676.083	14.996
679.986	14.9297
683.912	14.8637
687.86	14.798
691.831	14.7327
695.825	14.6676
699.842	14.603
703.882	14.5386
707.946	14.4745
712.033	14.4108
716.143	14.3474
720.278	14.2843
724.436	14.2215
728.618	14.1591
732.825	14.0969
737.055	14.0351
741.31	13.9736
745.59	13.9123
749.894	13.8514
754.223	13.7908
758.578	13.7305
762.957	13.6705
767.361	13.6109
771.792	13.5515
776.247	13.4924
780.728	13.4336
785.236	13.3751
789.769	13.3169
794.328	13.259
798.914	13.2013
803.526	13.144
808.165	13.087
812.831	13.0302
817.523	12.9737
822.243	12.9176
826.99	12.8617
831.764	12.8061
836.566	12.7507
841.395	12.6957
846.253	12.6409
851.138	12.5864
856.052	12.5322
860.994	12.4782
865.964	12.4245
870.964	12.3711
875.992	12.318
881.049	12.2652
886.135	12.2126
891.251	12.1602
896.396	12.1082
901.571	12.0564
906.776	12.0048
912.011	11.9536
917.276	11.9026
922.571	11.8518
927.897	11.8013
933.254	11.7511
938.642	11.7011
944.061	11.6514
949.511	11.6019
954.993	11.5527
960.506	11.5037
966.051	11.455
971.628	11.4065
977.237	11.3583
982.879	11.3103
988.553	11.2626
994.26	11.2151
1000	11.1678
1005.77	11.1208
1011.58	11.0741
1017.42	11.0275
1023.29	10.9813
1029.2	10.9352
1035.14	10.8894
1041.12	10.8438
1047.13	10.7985
1053.17	10.7534
1059.25	10.7085
1065.37	10.6638
1071.52	10.6194
1077.71	10.5752
1083.93	10.5313
1090.18	10.4875
1096.48	10.444
1102.81	10.4007
1109.17	10.3577
1115.58	10.3148
1122.02	10.2722
1128.5	10.2298
1135.01	10.1876
1141.56	10.1456
1148.15	10.1039
1154.78	10.0623
1161.45	10.021
1168.15	9.97991
1174.9	9.93902
1181.68	9.89833
1188.5	9.85786
1195.36	9.8176
1202.26	9.77755
1209.21	9.7377
1216.19	9.69806
1223.21	9.65863
1230.27	9.6194
1237.37	9.58037
1244.51	9.54155
1251.7	9.50293
1258.93	9.46451
1266.19	9.42629
1273.5	9.38826
1280.86	9.35044
1288.25	9.31282
1295.69	9.27538
1303.17	9.23815
1310.69	9.20111
1318.26	9.16426
1325.87	9.12761
1333.52	9.09114
1341.22	9.05487
1348.96	9.01879
1356.75	8.98289
1364.58	8.94718
1372.46	8.91167
1380.38	8.87633
1388.35	8.84118
1396.37	8.80622
1404.43	8.77144
1412.54	8.73684
1420.69	8.70243
1428.89	8.66819
1437.14	8.63414
1445.44	8.60026
1453.78	8.56656
1462.18	8.53304
1470.62	8.4997
1479.11	8.46653
1487.65	8.43354
1496.24	8.40072
1504.87	8.36807
1513.56	8.3356
1522.3	8.3033
1531.09	8.27117
1539.93	8.23921
1548.82	8.20742
1557.76	8.1758
1566.75	8.14434
1575.8	8.11306
1584.89	8.08193
1594.04	8.05098
1603.25	8.02019
1612.5	7.98956
1621.81	7.95909
1631.17	7.92879
1640.59	7.89865
1650.06	7.86867
1659.59	7.83884
1669.17	7.80918
1678.8	7.77968
1688.5	7.75033
1698.24	7.72114
1708.05	7.69211
1717.91	7.66323
1727.83	7.63451
1737.8	7.60594
1747.83	7.57752
1757.92	7.54926
1768.07	7.52115
1778.28	7.49319
1788.55	7.46538
1798.87	7.43772
1809.26	7.41021
1819.7	7.38284
1830.21	7.35563
1840.77	7.32856
1851.4	7.30163
1862.09	7.27485
1872.84	7.24822
1883.65	7.22173
1894.52	7.19539
1905.46	7.16918
1916.46	7.14312
1927.52	7.1172
1938.65	7.09142
1949.84	7.06578
1961.1	7.04028
1972.42	7.01492
1983.81	6.9897
1995.26	6.96461
2006.78	6.93967
2018.37	6.91485
2030.02	6.89018
2041.74	6.86563
2053.53	6.84122
2065.38	6.81695
2077.3	6.79281
2089.3	6.7688
2101.36	6.74492
2113.49	6.72117
2125.69	6.69756
2137.96	6.67407
2150.3	6.65071
2162.72	6.62748
2175.2	6.60438
2187.76	6.58141
2200.39	6.55856
2213.09	6.53584
2225.87	6.51324
2238.72	6.49077
2251.65	6.46843
2264.64	6.44621
2277.72	6.42411
2290.87	6.40213
2304.09	6.38028
2317.39	6.35854
2330.77	6.33693
2344.23	6.31544
2357.76	6.29407
2371.37	6.27282
2385.06	6.25168
2398.83	6.23067
2412.68	6.20977
2426.61	6.18899
2440.62	6.16833
2454.71	6.14778
2468.88	6.12734
2483.13	6.10703
2497.47	6.08682
2511.89	6.06673
2526.39	6.04676
2540.97	6.02689
2555.64	6.00714
2570.4	5.9875
2585.23	5.96797
2600.16	5.94855
2615.17	5.92924
2630.27	5.91004
2645.45	5.89095
2660.73	5.87197
2676.09	5.8531
2691.53	5.83433
2707.07	5.81567
2722.7	5.79712
2738.42	5.77867
2754.23	5.76033
2770.13	5.7421
2786.12	5.72397
2802.21	5.70594
2818.38	5.68802
2834.65	5.6702
2851.02	5.65248
2867.48	5.63486
2884.03	5.61735
2900.68	5.59993
2917.43	5.58262
2934.27	5.56541
2951.21	5.5483
2968.25	5.53129
2985.38	5.51437
3002.62	5.49756
3019.95	5.48084
3037.39	5.46422
3054.92	5.44769
3072.56	5.43127
3090.3	5.41494
3108.14	5.3987
3126.08	5.38256
3144.13	5.36652
3162.28	5.35057
3180.53	5.33471
3198.9	5.31895
3217.36	5.30328
3235.94	5.2877
3254.62	5.27222
3273.41	5.25682
3292.3	5.24152
3311.31	5.22631
3330.43	5.21119
3349.65	5.19616
3368.99	5.18122
3388.44	5.16636
3408	5.1516
3427.68	5.13693
3447.47	5.12234
3467.37	5.10784
3487.39	5.09343
3507.52	5.0791
3527.77	5.06487
3548.13	5.05071
3568.62	5.03665
3589.22	5.02266
3609.94	5.00877
3630.78	4.99495
3651.74	4.98123
3672.82	4.96758
3694.03	4.95402
3715.35	4.94054
3736.8	4.92714
3758.37	4.91383
3780.07	4.9006
3801.89	4.88745
3823.84	4.87438
3845.92	4.86139
3868.12	4.84848
3890.45	4.83565
3912.91	4.8229
3935.5	4.81023
3958.22	4.79763
3981.07	4.78512
4004.05	4.77268
4027.17	4.76033
4050.42	4.74805
4073.8	4.73584
4097.32	4.72371
4120.98	4.71166
4144.77	4.69969
4168.69	4.68779
4192.76	4.67597
4216.97	4.66422
4241.31	4.65254
4265.8	4.64094
4290.42	4.62941
4315.19	4.61796
4340.1	4.60658
4365.16	4.59528
4390.36	4.58404
4415.7	4.57288
4441.2	4.56179
4466.84	4.55077
4492.62	4.53982
4518.56	4.52894
4544.65	4.51814
4570.88	4.5074
4597.27	4.49674
4623.81	4.48614
4650.5	4.47561
4677.35	4.46515
4704.35	4.45477
4731.51	4.44444
4758.83	4.43419
4786.3	4.42401
4813.93	4.41389
4841.72	4.40384
4869.68	4.39385
4897.79	4.38393
4926.06	4.37408
4954.5	4.3643
4983.1	4.35458
5011.87	4.34492
5040.81	4.33533
5069.91	4.32581
5099.18	4.31635
5128.61	4.30695
5158.22	4.29762
5188	4.28835
5217.95	4.27914
5248.07	4.27
5278.37	4.26092
5308.84	4.2519
5339.49	4.24295
5370.32	4.23405
5401.32	4.22522
5432.5	4.21645
5463.87	4.20774
5495.41	4.19909
5527.13	4.1905
5559.04	4.18197
5591.14	4.17351
5623.41	4.1651
5655.88	4.15675
5688.53	4.14846
5721.37	4.14022
5754.4	4.13205
5787.62	4.12394
5821.03	4.11588
5854.64	4.10788
5888.44	4.09994
5922.43	4.09205
5956.62	4.08423
5991.01	4.07646
6025.6	4.06874
6060.38	4.06108
6095.37	4.05348
6130.56	4.04594
6165.95	4.03845
6201.55	4.03101
6237.35	4.02363
6273.36	4.0163
6309.57	4.00903
6346	4.00182
6382.63	3.99465
6419.48	3.98754
6456.54	3.98049
6493.82	3.97348
6531.31	3.96653
6569.01	3.95964
6606.93	3.95279
6645.08	3.946
6683.44	3.93926
6722.02	3.93257
6760.83	3.92594
6799.86	3.91935
6839.12	3.91282
6878.6	3.90633
6918.31	3.8999
6958.25	3.89352
6998.42	3.88719
7038.82	3.88091
7079.46	3.87467
7120.33	3.86849
7161.43	3.86236
7202.78	3.85627
7244.36	3.85024
7286.18	3.84425
7328.25	3.83831
7370.55	3.83242
7413.1	3.82658
7455.9	3.82079
7498.94	3.81504
7542.23	3.80934
7585.78	3.80369
7629.57	3.79808
7673.61	3.79253
7717.92	3.78701
7762.47	3.78155
7807.28	3.77613
7852.36	3.77076
7897.69	3.76543
7943.28	3.76014
7989.14	3.75491
8035.26	3.74972
8081.65	3.74457
8128.31	3.73947
8175.23	3.73441
8222.43	3.72939
8269.9	3.72442
8317.64	3.7195
8365.66	3.71461
8413.95	3.70978
8462.53	3.70498
8511.38	3.70023
8560.52	3.69552
8609.94	3.69085
8659.64	3.68623
8709.64	3.68155
8759.92	3.67662
8810.49	3.67172
8861.35	3.66686
8912.51	3.66205
8963.96	3.65728
9015.71	3.65254
9067.76	3.64785
9120.11	3.6432
9172.76	3.63858
9225.71	3.63401
9278.97	3.62948
9332.54	3.62498
9386.42	3.62053
9440.61	3.61611
9495.11	3.61173
9549.93	3.60739
9605.06	3.60309
9660.51	3.59883
9716.28	3.59461
9772.37	3.59042
9828.79	3.58627
9885.53	3.58216
9942.6	3.57809
10000	3.57405
10057.7	3.57005
10115.8	3.56609
10174.2	3.56216
10232.9	3.55827
10292	3.55442
10351.4	3.5506
10411.2	3.54682
10471.3	3.54307
10531.7	3.53936
10592.5	3.53569
10653.7	3.53205
10715.2	3.52844
10777.1	3.52487
10839.3	3.52134
10901.8	3.51784
10964.8	3.51437
11028.1	3.51094
11091.7	3.50754
11155.8	3.50417
11220.2	3.50084
11285	3.49754
11350.1	3.49428
11415.6	3.49105
11481.5	3.48785
11547.8	3.48468
11614.5	3.48155
11681.5	3.47845
11749	3.47538
11816.8	3.47235
11885	3.46934
11953.6	3.46637
12022.6	3.46343
12092.1	3.46052
12161.9	3.45764
12232.1	3.4548
12302.7	3.45198
12373.7	3.4492
12445.1	3.44644
12517	3.44372
12589.3	3.44103
12661.9	3.43836
12735	3.43573
12808.6	3.43313
12882.5	3.43056
12956.9	3.42801
13031.7	3.4255
13106.9	3.42301
13182.6	3.42056
13258.7	3.41813
13335.2	3.41573
13412.2	3.41336
13489.6	3.41102
13567.5	3.40871
13645.8	3.40643
13724.6	3.40417
13803.8	3.40195
13883.5	3.39975
13963.7	3.39757
14044.3	3.39543
14125.4	3.39331
14206.9	3.39122
14288.9	3.38916
14371.4	3.38712
14454.4	3.38511
14537.8	3.38313
14621.8	3.38117
14706.2	3.37924
14791.1	3.37734
14876.5	3.37546
14962.4	3.37361
15048.7	3.37179
15135.6	3.36999
15223	3.36821
15310.9	3.36646
15399.3	3.36474
15488.2	3.36304
15577.6	3.36137
15667.5	3.35972
15758	3.35809
15848.9	3.35649
15940.4	3.35492
16032.5	3.35337
16125	3.35184
16218.1	3.35034
16311.7	3.34886
16405.9	3.3474
16500.6	3.34597
16595.9	3.34456
16691.7	3.34318
16788	3.34182
16885	3.34048
16982.4	3.33916
17080.5	3.33787
17179.1	3.3366
17278.3	3.33535
17378	3.33413
17478.3	3.33293
17579.2	3.33175
17680.7	3.33059
17782.8	3.32945
17885.5	3.32834
17988.7	3.32725
18092.6	3.32618
18197	3.32513
18302.1	3.3241
18407.7	3.32309
18514	3.32211
18620.9	3.32114
18728.4	3.3202
18836.5	3.31927
18945.2	3.31837
19054.6	3.31749
19164.6	3.31663
19275.2	3.31579
19386.5	3.31496
19498.4	3.31416
19611	3.31338
19724.2	3.31262
19838.1	3.31188
19952.6	3.31116
20067.8	3.31045
20183.7	3.30977
20300.2	3.3091
20417.4	3.30846
20535.3	3.30783
20653.8	3.30722
20773	3.30664
20893	3.30607
21013.6	3.30551
21134.9	3.30498
21256.9	3.30447
21379.6	3.30397
21503	3.30349
21627.2	3.30303
21752	3.30259
21877.6	3.30216
22003.9	3.30175
22130.9	3.30136
22258.7	3.30099
22387.2	3.30063
22516.5	3.3003
22646.4	3.29998
22777.2	3.29967
22908.7	3.29938
23040.9	3.29911
23173.9	3.29886
23307.7	3.29862
23442.3	3.2984
23577.6	3.2982
23713.7	3.29801
23850.6	3.29784
23988.3	3.29768
24126.8	3.29754
24266.1	3.29742
24406.2	3.29731
24547.1	3.29722
24688.8	3.29714
24831.3	3.29708
24974.7	3.29703
25118.9	3.297
25263.9	3.29698
25409.7	3.29698
25556.4	3.29699
25704	3.29702
25852.3	3.29707
26001.6	3.29712
26151.7	3.2972
26302.7	3.29728
26454.5	3.29739
26607.3	3.2975
26760.9	3.29763
26915.3	3.29778
27070.7	3.29793
27227	3.29811
27384.2	3.29829
27542.3	3.29849
27701.3	3.2987
27861.2	3.29893
28022.1	3.29917
28183.8	3.29942
28346.5	3.29969
28510.2	3.29997
28674.8	3.30026
28840.3	3.30057
29006.8	3.30089
29174.3	3.30122
29342.7	3.30156
29512.1	3.30192
29682.5	3.30229
29853.8	3.30267
30026.2	3.30306
30199.5	3.30347
30373.9	3.30389
30549.2	3.30432
30725.6	3.30476
30903	3.30522
31081.4	3.30568
31260.8	3.30616
31441.3	3.30665
31622.8	3.30715
31805.3	3.30766
31989	3.30819
32173.6	3.30872
32359.4	3.30927
32546.2	3.30983
32734.1	3.3104
32923	3.31098
33113.1	3.31157
33304.3	3.31217
33496.5	3.31278
33689.9	3.31341
33884.4	3.31404
34080	3.31469
34276.8	3.31534
34474.7	3.31601
34673.7	3.31668
34873.9	3.31737
35075.2	3.31807
35277.7	3.31877
35481.3	3.31949
35686.2	3.32022
35892.2	3.32095
36099.4	3.3217
36307.8	3.32245
36517.4	3.32322
36728.2	3.32399
36940.3	3.32478
37153.5	3.32557
37368	3.32638
37583.7	3.32719
37800.7	3.32801
38018.9	3.32884
38238.4	3.32968
38459.2	3.33053
38681.2	3.33139
38904.5	3.33226
39129.1	3.33313
39355	3.33402
39582.2	3.33491
39810.7	3.33581
40040.5	3.33672
40271.7	3.33764
40504.2	3.33857
40738	3.3395
40973.2	3.34044
41209.8	3.3414
41447.7	3.34235
41686.9	3.34332
41927.6	3.3443
42169.7	3.34528
42413.1	3.34627
42658	3.34727
42904.2	3.34828
43151.9	3.34929
43401	3.35032
43651.6	3.35135
43903.6	3.35238
44157	3.35343
44412	3.35448
44668.4	3.35554
44926.2	3.35661
45185.6	3.35768
45446.5	3.35876
45708.8	3.35985
45972.7	3.36095
46238.1	3.36205
46505	3.36316
46773.5	3.36427
47043.5	3.36539
47315.1	3.36652
47588.3	3.36766
47863	3.3688
48139.3	3.36995
48417.2	3.37111
48696.8	3.37227
48977.9	3.37344
49260.6	3.37461
49545	3.37579
49831	3.37698
50118.7	3.37817
50408.1	3.37937
50699.1	3.38058
50991.8	3.38179
51286.1	3.383
51582.2	3.38423
51880	3.38546
52179.5	3.38669
52480.7	3.38793
52783.7	3.38918
53088.4	3.39043
53394.9	3.39169
53703.2	3.39295
54013.2	3.39422
54325	3.39549
54638.7	3.39677
54954.1	3.39805
55271.3	3.39934
55590.4	3.40064
55911.4	3.40194
56234.1	3.40324
56558.8	3.40455
56885.3	3.40587
57213.7	3.40719
57544	3.40851
57876.2	3.40984
58210.3	3.41118
58546.4	3.41252
58884.4	3.41386
59224.3	3.41521
59566.2	3.41657
59910.1	3.41793
60256	3.41929
60603.8	3.42066
60953.7	3.42203
61305.6	3.4234
61659.5	3.42479
62015.5	3.42617
62373.5	3.42756
62733.6	3.42895
63095.7	3.43035
63460	3.43176
63826.3	3.43316
64194.8	3.43457
64565.4	3.43599
64938.2	3.43741
65313.1	3.43883
65690.1	3.44025
66069.3	3.44169
66450.8	3.44312
66834.4	3.44456
67220.2	3.446
67608.3	3.44745
67998.6	3.4489
68391.2	3.45035
68786	3.45181
69183.1	3.45327
69582.5	3.45473
69984.2	3.4562
70388.2	3.45767
70794.6	3.45914
71203.3	3.46062
71614.3	3.4621
72027.8	3.46359
72443.6	3.46507
72861.8	3.46657
73282.5	3.46806
73705.5	3.46956
74131	3.47106
74559	3.47256
74989.4	3.47407
75422.3	3.47558
75857.8	3.47709
76295.7	3.47861
76736.1	3.48013
77179.2	3.48165
77624.7	3.48317
78072.8	3.4847
78523.6	3.48623
78976.9	3.48777
79432.8	3.4893
79891.4	3.49084
80352.6	3.49238
80816.5	3.49393
81283.1	3.49547
81752.3	3.49702
82224.3	3.49858
82699	3.50013
83176.4	3.50169
83656.6	3.50325
84139.5	3.50481
84625.3	3.50637
85113.8	3.50794
85605.2	3.50951
86099.4	3.51108
86596.4	3.51266
87096.4	3.51423
87599.2	3.51581
88104.9	3.51739
88613.5	3.51898
89125.1	3.52056
89639.6	3.52215
90157.1	3.52374
90677.6	3.52533
91201.1	3.52692
91727.6	3.52852
92257.1	3.53012
92789.7	3.53172
93325.4	3.53332
93864.2	3.53492
94406.1	3.53653
94951.1	3.53814
95499.3	3.53974
96050.6	3.54136
96605.1	3.54297
97162.8	3.54458
97723.7	3.5462
98287.9	3.54782
98855.3	3.54944
99426	3.55106
100000	3.55268
100577	3.55431
101158	3.55594
101742	3.55756
102329	3.55919
102920	3.56083
103514	3.56246
104112	3.56409
104713	3.56573
105317	3.56737
105925	3.56901
106537	3.57065
107152	3.57229
107771	3.57393
108393	3.57558
109018	3.57722
109648	3.57887
110281	3.58052
110917	3.58217
111558	3.58382
112202	3.58547
112850	3.58713
113501	3.58878
114156	3.59044
114815	3.59209
115478	3.59375
116145	3.59541
116815	3.59707
117490	3.59874
118168	3.6004
118850	3.60206
119536	3.60373
120226	3.60539
120921	3.60706
121619	3.60873
122321	3.6104
123027	3.61207
123737	3.61374
124451	3.61541
125170	3.61708
125893	3.61876
126619	3.62043
127350	3.62211
128086	3.62378
128825	3.62546
129569	3.62714
130317	3.62882
131069	3.6305
131826	3.63218
132587	3.63386
133352	3.63554
134122	3.63722
134896	3.6389
135675	3.64059
136458	3.64227
137246	3.64396
138038	3.64564
138835	3.64733
139637	3.64902
140443	3.6507
141254	3.65239
142069	3.65408
142889	3.65577
143714	3.65746
144544	3.65915
145378	3.66084
146218	3.66253
147062	3.66422
147911	3.66592
148765	3.66761
149624	3.6693
150487	3.671
151356	3.67269
152230	3.67439
153109	3.67608
153993	3.67778
154882	3.67947
155776	3.68117
156675	3.68286
157580	3.68456
158489	3.68626
159404	3.68796
160325	3.68965
161250	3.69135
162181	3.69305
163117	3.69475
164059	3.69645
165006	3.69815
165959	3.69985
166917	3.70155
167880	3.70325
168850	3.70495
169824	3.70665
170805	3.70835
171791	3.71005
172783	3.71175
173780	3.71345
174783	3.71515
175792	3.71685
176807	3.71855
177828	3.72026
178855	3.72196
179887	3.72366
180926	3.72536
181970	3.72706
183021	3.72877
184077	3.73047
185140	3.73217
186209	3.73387
187284	3.73557
188365	3.73728
189452	3.73898
190546	3.74068
191646	3.74238
192752	3.74409
193865	3.74579
194984	3.74749
196110	3.74919
197242	3.7509
198381	3.7526
199526	3.7543
200678	3.756
201837	3.7577
203002	3.75941
204174	3.76111
205353	3.76281
206538	3.76451
207730	3.76621
208930	3.76791
210136	3.76962
211349	3.77132
212569	3.77302
213796	3.77472
215030	3.77642
216272	3.77812
217520	3.77982
218776	3.78152
220039	3.78322
221309	3.78492
222587	3.78662
223872	3.78832
225165	3.79002
226464	3.79172
227772	3.79342
229087	3.79512
230409	3.79682
231739	3.79852
233077	3.80021
234423	3.80191
235776	3.80361
237137	3.80531
238506	3.807
239883	3.8087
241268	3.8104
242661	3.81209
244062	3.81379
245471	3.81549
246888	3.81718
248313	3.81888
249747	3.82057
251189	3.82227
252639	3.82396
254097	3.82566
255564	3.82735
257040	3.82904
258523	3.83074
260016	3.83243
261517	3.83412
263027	3.83581
264545	3.8375
266073	3.8392
267609	3.84089
269153	3.84258
270707	3.84427
272270	3.84596
273842	3.84765
275423	3.84934
277013	3.85102
278612	3.85271
280221	3.8544
281838	3.85609
283465	3.85778
285102	3.85946
286748	3.86115
288403	3.86283
290068	3.86452
291743	3.86621
293427	3.86789
295121	3.86957
296825	3.87126
298538	3.87294
300262	3.87462
301995	3.87631
303739	3.87799
305492	3.87967
307256	3.88135
309030	3.88303
310814	3.88471
312608	3.88639
314413	3.88807
316228	3.88975
318053	3.89143
319890	3.89311
321736	3.89478
323594	3.89646
325462	3.89814
327341	3.89981
329230	3.90149
331131	3.90316
333043	3.90484
334965	3.90651
336899	3.90819
338844	3.90986
340800	3.91153
342768	3.9132
344747	3.91488
346737	3.91655
348739	3.91822
350752	3.91989
352777	3.92156
354813	3.92323
356862	3.92489
358922	3.92656
360994	3.92823
363078	3.9299
365174	3.93156
367282	3.93323
369403	3.93489
371535	3.93656
373680	3.93822
375837	3.93988
378007	3.94155
380189	3.94321
382384	3.94487
384592	3.94653
386812	3.94819
389045	3.94985
391291	3.95151
393550	3.95317
395822	3.95483
398107	3.95649
400405	3.95814
402717	3.9598
405042	3.96146
407380	3.96311
409732	3.96477
412098	3.96642
414477	3.96808
416869	3.96973
419276	3.97138
421697	3.97303
424131	3.97469
426580	3.97634
429042	3.97799
431519	3.97964
434010	3.98128
436516	3.98293
439036	3.98458
441570	3.98623
444120	3.98787
446684	3.98952
449262	3.99117
451856	3.99281
454465	3.99445
457088	3.9961
459727	3.99774
462381	3.99938
465050	4.00102
467735	4.00267
470435	4.00431
473151	4.00595
475883	4.00758
478630	4.00922
481393	4.01086
484172	4.0125
486968	4.01414
489779	4.01577
492606	4.01741
495450	4.01904
498310	4.02068
501187	4.02231
504081	4.02394
506991	4.02557
509918	4.02721
512861	4.02884
515822	4.03047
518800	4.0321
521795	4.03372
524807	4.03535
527837	4.03698
530884	4.03861
533949	4.04023
537032	4.04186
540132	4.04349
543250	4.04511
546387	4.04673
549541	4.04836
552713	4.04998
555904	4.0516
559114	4.05322
562341	4.05484
565588	4.05646
568853	4.05808
572137	4.0597
575440	4.06132
578762	4.06293
582103	4.06455
585464	4.06617
588844	4.06778
592243	4.0694
595662	4.07101
599101	4.07262
602560	4.07424
606038	4.07585
609537	4.07746
613056	4.07907
616595	4.08068
620155	4.08229
623735	4.0839
627336	4.0855
630957	4.08711
634600	4.08872
638263	4.09032
641948	4.09193
645654	4.09353
649382	4.09514
653131	4.09674
656901	4.09834
660693	4.09994
664508	4.10154
668344	4.10314
672202	4.10474
676083	4.10634
679986	4.10794
683912	4.10954
687860	4.11114
691831	4.11273
695825	4.11433
699842	4.11592
703882	4.11752
707946	4.11911
712033	4.1207
716143	4.12229
720278	4.12389
724436	4.12548
728618	4.12707
732825	4.12865
737055	4.13024
741310	4.13183
745590	4.13342
749894	4.135
754223	4.13659
758578	4.13818
762957	4.13976
767361	4.14134
771792	4.14293
776247	4.14451
780728	4.14609
785236	4.14767
789769	4.14925
794328	4.15083
798914	4.15241
803526	4.15399
808165	4.15556
812831	4.15714
817523	4.15872
822243	4.16029
826990	4.16187
831764	4.16344
836566	4.16501
841395	4.16659
846253	4.16816
851138	4.16973
856052	4.1713
860994	4.17287
865964	4.17444
870964	4.17601
875992	4.17757
881049	4.17914
886135	4.18071
891251	4.18227
896396	4.18383
901571	4.1854
906776	4.18696
912011	4.18852
917276	4.19009
922571	4.19165
927897	4.19321
933254	4.19477
938642	4.19633
944061	4.19788
949511	4.19944
954993	4.201
960506	4.20255
966051	4.20411
971628	4.20566
977237	4.20722
982879	4.20877
988553	4.21032
994260	4.21187
1e+06	4.21342
1.00577e+06	4.21497
1.01158e+06	4.21652
1.01742e+06	4.21807
1.02329e+06	4.21962
1.0292e+06	4.22117
1.03514e+06	4.22271
1.04112e+06	4.22426
1.04713e+06	4.22581
1.05317e+06	4.22735
1.05925e+06	4.22889
1.06537e+06	4.23044
1.07152e+06	4.23198
1.07771e+06	4.23352
1.08393e+06	4.23506
1.09018e+06	4.2366
1.09648e+06	4.23814
1.10281e+06	4.23968
1.10917e+06	4.24122
1.11558e+06	4.24275
1.12202e+06	4.24429
1.1285e+06	4.24582
1.13501e+06	4.24736
1.14156e+06	4.24889
1.14815e+06	4.25043
1.15478e+06	4.25196
1.16145e+06	4.25349
1.16815e+06	4.25502
1.1749e+06	4.25655
1.18168e+06	4.25808
1.1885e+06	4.25961
1.19536e+06	4.26114
1.20226e+06	4.26267
1.20921e+06	4.26419
1.21619e+06	4.26572
1.22321e+06	4.26724
1.23027e+06	4.26877
1.23737e+06	4.27029
1.24451e+06	4.27182
1.2517e+06	4.27334
1.25893e+06	4.27486
1.26619e+06	4.27638
1.2735e+06	4.2779
1.28086e+06	4.27942
1.28825e+06	4.28094
1.29569e+06	4.28246
1.30317e+06	4.28397
1.31069e+06	4.28549
1.31826e+06	4.28701
1.32587e+06	4.28852
1.33352e+06	4.29003
1.34122e+06	4.29155
1.34896e+06	4.29306
1.35675e+06	4.29457
1.36458e+06	4.29608
1.37246e+06	4.29759
1.38038e+06	4.2991
1.38835e+06	4.30061
1.39637e+06	4.30212
1.40443e+06	4.30363
1.41254e+06	4.30513
1.42069e+06	4.30664
1.42889e+06	4.30814
1.43714e+06	4.30965
1.44544e+06	4.31115
1.45378e+06	4.31266
1.46218e+06	4.31416
1.47062e+06	4.31566
1.47911e+06	4.31716
1.48765e+06	4.31866
1.49624e+06	4.32016
1.50487e+06	4.32166
1.51356e+06	4.32315
1.5223e+06	4.32465
1.53109e+06	4.32615
1.53993e+06	4.32764
1.54882e+06	4.32914
1.55776e+06	4.33063
1.56675e+06	4.33212
1.5758e+06	4.33361
1.58489e+06	4.33511
1.59404e+06	4.3366
1.60325e+06	4.33809
1.6125e+06	4.33958
1.62181e+06	4.34106
1.63117e+06	4.34255
1.64059e+06	4.34404
1.65006e+06	4.34552
1.65959e+06	4.34701
1.66917e+06	4.34849
1.6788e+06	4.34998
1.6885e+06	4.35146
1.69824e+06	4.35294
1.70805e+06	4.35442
1.71791e+06	4.35591
1.72783e+06	4.35738
1.7378e+06	4.35886
1.74783e+06	4.36034
1.75792e+06	4.36182
1.76807e+06	4.3633
1.77828e+06	4.36477
1.78855e+06	4.36625
1.79887e+06	4.36772
1.80926e+06	4.3692
1.8197e+06	4.37067
1.83021e+06	4.37214
1.84077e+06	4.37361
1.8514e+06	4.37508
1.86209e+06	4.37655
1.87284e+06	4.37802
1.88365e+06	4.37949
1.89452e+06	4.38096
1.90546e+06	4.38242
1.91646e+06	4.38389
1.92752e+06	4.38536
1.93865e+06	4.38682
1.94984e+06	4.38828
1.9611e+06	4.38975
1.97242e+06	4.39121
1.98381e+06	4.39267
1.99526e+06	4.39413
2.00678e+06	4.39559
2.01837e+06	4.39705
2.03002e+06	4.39851
2.04174e+06	4.39996
2.05353e+06	4.40142
2.06538e+06	4.40288
2.0773e+06	4.40433
2.0893e+06	4.40578
2.10136e+06	4.40724
2.11349e+06	4.40869
2.12569e+06	4.41014
2.13796e+06	4.41159
2.1503e+06	4.41304
2.16272e+06	4.41449
2.1752e+06	4.41594
2.18776e+06	4.41739
2.20039e+06	4.41884
2.21309e+06	4.42028
2.22587e+06	4.42173
2.23872e+06	4.42317
2.25165e+06	4.42461
2.26464e+06	4.42606
2.27772e+06	4.4275
2.29087e+06	4.42894
2.30409e+06	4.43038
2.31739e+06	4.43182
2.33077e+06	4.43326
2.34423e+06	4.4347
2.35776e+06	4.43614
2.37137e+06	4.43757
2.38506e+06	4.43901
2.39883e+06	4.44044
2.41268e+06	4.44188
2.42661e+06	4.44331
2.44062e+06	4.44474
2.45471e+06	4.44617
2.46888e+06	4.44761
2.48313e+06	4.44904
2.49747e+06	4.45046
2.51189e+06	4.45189
2.52639e+06	4.45332
2.54097e+06	4.45475
2.55564e+06	4.45617
2.5704e+06	4.4576
2.58523e+06	4.45902
2.60016e+06	4.46045
2.61517e+06	4.46187
2.63027e+06	4.46329
2.64545e+06	4.46471
2.66073e+06	4.46613
2.67609e+06	4.46755
2.69153e+06	4.46897
2.70707e+06	4.47039
2.7227e+06	4.4718
2.73842e+06	4.47322
2.75423e+06	4.47464
2.77013e+06	4.47605
2.78612e+06	4.47746
2.80221e+06	4.47888
2.81838e+06	4.48029
2.83465e+06	4.4817
2.85102e+06	4.48311
2.86748e+06	4.48452
2.88403e+06	4.48593
2.90068e+06	4.48734
2.91743e+06	4.48874
2.93427e+06	4.49015
2.95121e+06	4.49156
2.96825e+06	4.49296
2.98538e+06	4.49436
3.00262e+06	4.49577
3.01995e+06	4.49717
3.03739e+06	4.49857
3.05492e+06	4.49997
3.07256e+06	4.50137
3.0903e+06	4.50277
3.10814e+06	4.50417
3.12608e+06	4.50556
3.14413e+06	4.50696
3.16228e+06	4.50835
3.18053e+06	4.50975
3.1989e+06	4.51114
3.21736e+06	4.51254
3.23594e+06	4.51393
3.25462e+06	4.51532
3.27341e+06	4.51671
3.2923e+06	4.5181
3.31131e+06	4.51949
3.33043e+06	4.52087
3.34965e+06	4.52226
3.36899e+06	4.52365
3.38844e+06	4.52503
3.408e+06	4.52642
3.42768e+06	4.5278
3.44747e+06	4.52918
3.46737e+06	4.53057
3.48739e+06	4.53195
3.50752e+06	4.53333
3.52777e+06	4.53471
3.54813e+06	4.53608
3.56862e+06	4.53746
3.58922e+06	4.53884
3.60994e+06	4.54021
3.63078e+06	4.54159
3.65174e+06	4.54296
3.67282e+06	4.54434
3.69403e+06	4.54571
3.71535e+06	4.54708
3.7368e+06	4.54845
3.75837e+06	4.54982
3.78007e+06	4.55119
3.80189e+06	4.55256
3.82384e+06	4.55392
3.84592e+06	4.55529
3.86812e+06	4.55666
3.89045e+06	4.55802
3.91291e+06	4.55938
3.9355e+06	4.56075
3.95822e+06	4.56211
3.98107e+06	4.56347
4.00405e+06	4.56483
4.02717e+06	4.56619
4.05042e+06	4.56755
4.0738e+06	4.5689
4.09732e+06	4.57026
4.12098e+06	4.57162
4.14477e+06	4.57297
4.16869e+06	4.57433
4.19276e+06	4.57568
4.21697e+06	4.57703
4.24131e+06	4.57838
4.2658e+06	4.57973
4.29042e+06	4.58108
4.31519e+06	4.58243
4.3401e+06	4.58378
4.36516e+06	4.58513
4.39036e+06	4.58647
4.4157e+06	4.58782
4.4412e+06	4.58916
4.46684e+06	4.59051
4.49262e+06	4.59185
4.51856e+06	4.59319
4.54465e+06	4.59453
4.57088e+06	4.59587
4.59727e+06	4.59721
4.62381e+06	4.59855
4.6505e+06	4.59988
4.67735e+06	4.60122
4.70435e+06	4.60256
4.73151e+06	4.60389
4.75883e+06	4.60522
4.7863e+06	4.60656
4.81393e+06	4.60789
4.84172e+06	4.60922
4.86968e+06	4.61055
4.89779e+06	4.61188
4.92606e+06	4.61321
4.9545e+06	4.61453
4.9831e+06	4.61586
5.01187e+06	4.61718
5.04081e+06	4.61851
5.06991e+06	4.61983
5.09918e+06	4.62116
5.12861e+06	4.62248
5.15822e+06	4.6238
5.188e+06	4.62512
5.21795e+06	4.62644
5.24807e+06	4.62775
5.27837e+06	4.62907
5.30884e+06	4.63039
5.33949e+06	4.6317
5.37032e+06	4.63302
5.40132e+06	4.63433
5.4325e+06	4.63564
5.46387e+06	4.63695
5.49541e+06	4.63827
5.52713e+06	4.63958
5.55904e+06	4.64088
5.59114e+06	4.64219
5.62341e+06	4.6435
5.65588e+06	4.6448
5.68853e+06	4.64611
5.72137e+06	4.64741
5.7544e+06	4.64872
5.78762e+06	4.65002
5.82103e+06	4.65132
5.85464e+06	4.65262
5.88844e+06	4.65392
5.92243e+06	4.65522
5.95662e+06	4.65652
5.99101e+06	4.65781
6.0256e+06	4.65911
6.06038e+06	4.6604
6.09537e+06	4.6617
6.13056e+06	4.66299
6.16595e+06	4.66428
6.20155e+06	4.66557
6.23735e+06	4.66686
6.27336e+06	4.66815
6.30957e+06	4.66944
6.346e+06	4.67072
6.38263e+06	4.67201
6.41948e+06	4.6733
6.45654e+06	4.67458
6.49382e+06	4.67586
6.53131e+06	4.67715
6.56901e+06	4.67843
6.60693e+06	4.67971
6.64508e+06	4.68099
6.68344e+06	4.68226
6.72202e+06	4.68354
6.76083e+06	4.68482
6.79986e+06	4.68609
6.83912e+06	4.68737
6.8786e+06	4.68864
6.91831e+06	4.68991
6.95825e+06	4.69118
6.99842e+06	4.69245
7.03882e+06	4.69372
7.07946e+06	4.69499
7.12033e+06	4.69626
7.16143e+06	4.69753
7.20278e+06	4.69879
7.24436e+06	4.70006
7.28618e+06	4.70132
7.32825e+06	4.70258
7.37055e+06	4.70384
7.4131e+06	4.7051
7.4559e+06	4.70636
7.49894e+06	4.70762
7.54223e+06	4.70888
7.58578e+06	4.71014
7.62957e+06	4.71139
7.67361e+06	4.71265
7.71792e+06	4.7139
7.76247e+06	4.71515
7.80728e+06	4.7164
7.85236e+06	4.71765
7.89769e+06	4.7189
7.94328e+06	4.72015
7.98914e+06	4.7214
8.03526e+06	4.72265
8.08165e+06	4.72389
8.12831e+06	4.72514
8.17523e+06	4.72638
8.22243e+06	4.72762
8.2699e+06	4.72886
8.31764e+06	4.7301
8.36566e+06	4.73134
8.41395e+06	4.73258
8.46253e+06	4.73382
8.51138e+06	4.73506
8.56052e+06	4.73629
8.60994e+06	4.73753
8.65964e+06	4.73876
8.70964e+06	4.73999
8.75992e+06	4.74122
8.81049e+06	4.74245
8.86135e+06	4.74368
8.91251e+06	4.74491
8.96396e+06	4.74614
9.01571e+06	4.74736
9.06776e+06	4.74859
9.12011e+06	4.74981
9.17276e+06	4.75104
9.22571e+06	4.75226
9.27897e+06	4.75348
9.33254e+06	4.7547
9.38642e+06	4.75592
9.44061e+06	4.75714
9.49511e+06	4.75835
9.54993e+06	4.75957
9.60506e+06	4.76078
9.66051e+06	4.762
9.71628e+06	4.76321
9.77237e+06	4.76442
9.82879e+06	4.76563
9.88553e+06	4.76684
9.9426e+06	4.76805
1e+07	4.76926
