Stopping power dEdx from Ionisation for C12[0.0] Z = 6 in Water, process name: ionIoni
E [MeV]	dEdx [MeV/mm]
0.001	24.1552
0.00100577	24.2252
0.00101158	24.2955
0.00101742	24.366
0.00102329	24.4366
0.0010292	24.5075
0.00103514	24.5785
0.00104112	24.6498
0.00104713	24.7213
0.00105317	24.793
0.00105925	24.8649
0.00106537	24.9369
0.00107152	25.0092
0.00107771	25.0818
0.00108393	25.1545
0.00109018	25.2274
0.00109648	25.3006
0.00110281	25.3739
0.00110917	25.4475
0.00111558	25.5212
0.00112202	25.5952
0.0011285	25.6694
0.00113501	25.7438
0.00114156	25.8185
0.00114815	25.8933
0.00115478	25.9684
0.00116145	26.0437
0.00116815	26.1191
0.0011749	26.1949
0.00118168	26.2708
0.0011885	26.3469
0.00119536	26.4233
0.00120226	26.4999
0.00120921	26.5767
0.00121619	26.6537
0.00122321	26.731
0.00123027	26.8085
0.00123737	26.8862
0.00124451	26.9641
0.0012517	27.0422
0.00125893	27.1206
0.00126619	27.1992
0.0012735	27.278
0.00128086	27.3571
0.00128825	27.4363
0.00129569	27.5159
0.00130317	27.5956
0.00131069	27.6756
0.00131826	27.7558
0.00132587	27.8362
0.00133352	27.9168
0.00134122	27.9977
0.00134896	28.0789
0.00135675	28.1602
0.00136458	28.2418
0.00137246	28.3236
0.00138038	28.4057
0.00138835	28.488
0.00139637	28.5705
0.00140443	28.6533
0.00141254	28.7363
0.00142069	28.8196
0.00142889	28.9031
0.00143714	28.9868
0.00144544	29.0708
0.00145378	29.155
0.00146218	29.2395
0.00147062	29.3242
0.00147911	29.4091
0.00148765	29.4943
0.00149624	29.5798
0.00150487	29.6655
0.00151356	29.7514
0.0015223	29.8376
0.00153109	29.924
0.00153993	30.0107
0.00154882	30.0976
0.00155776	30.1848
0.00156675	30.2722
0.0015758	30.3599
0.00158489	30.4478
0.00159404	30.536
0.00160325	30.6245
0.0016125	30.7131
0.00162181	30.8021
0.00163117	30.8913
0.00164059	30.9808
0.00165006	31.0705
0.00165959	31.1605
0.00166917	31.2507
0.0016788	31.3412
0.0016885	31.432
0.00169824	31.523
0.00170805	31.6143
0.00171791	31.7058
0.00172783	31.7977
0.0017378	31.8897
0.00174783	31.9821
0.00175792	32.0747
0.00176807	32.1676
0.00177828	32.2607
0.00178855	32.3541
0.00179887	32.4478
0.00180926	32.5418
0.0018197	32.636
0.00183021	32.7305
0.00184077	32.8253
0.0018514	32.9203
0.00186209	33.0156
0.00187284	33.1112
0.00188365	33.2071
0.00189452	33.3032
0.00190546	33.3996
0.00191646	33.4963
0.00192752	33.5933
0.00193865	33.6905
0.00194984	33.7881
0.0019611	33.8859
0.00197242	33.984
0.00198381	34.0824
0.00199526	34.181
0.00200678	34.28
0.00201837	34.3792
0.00203002	34.4787
0.00204174	34.5785
0.00205353	34.6786
0.00206538	34.779
0.0020773	34.8797
0.0020893	34.9807
0.00210136	35.0819
0.00211349	35.1834
0.00212569	35.2853
0.00213796	35.3874
0.0021503	35.4898
0.00216272	35.5926
0.0021752	35.6956
0.00218776	35.7989
0.00220039	35.9025
0.00221309	36.0064
0.00222587	36.1106
0.00223872	36.2151
0.00225165	36.3199
0.00226464	36.4251
0.00227772	36.5305
0.00229087	36.6362
0.00230409	36.7422
0.00231739	36.8486
0.00233077	36.9552
0.00234423	37.0621
0.00235776	37.1694
0.00237137	37.2769
0.00238506	37.3848
0.00239883	37.493
0.00241268	37.6015
0.00242661	37.7103
0.00244062	37.8194
0.00245471	37.9289
0.00246888	38.0386
0.00248313	38.1487
0.00249747	38.2591
0.00251189	38.3698
0.00252639	38.4808
0.00254097	38.5921
0.00255564	38.7038
0.0025704	38.8158
0.00258523	38.9281
0.00260016	39.0407
0.00261517	39.1537
0.00263027	39.267
0.00264545	39.3806
0.00266073	39.4945
0.00267609	39.6088
0.00269153	39.7234
0.00270707	39.8383
0.0027227	39.9535
0.00273842	40.0691
0.00275423	40.185
0.00277013	40.3013
0.00278612	40.4179
0.00280221	40.5348
0.00281838	40.6521
0.00283465	40.7697
0.00285102	40.8876
0.00286748	41.0059
0.00288403	41.1245
0.00290068	41.2435
0.00291743	41.3628
0.00293427	41.4824
0.00295121	41.6024
0.00296825	41.7228
0.00298538	41.8434
0.00300262	41.9645
0.00301995	42.0859
0.00303739	42.2076
0.00305492	42.3297
0.00307256	42.4521
0.0030903	42.5749
0.00310814	42.698
0.00312608	42.8215
0.00314413	42.9454
0.00316228	43.0696
0.00318053	43.1942
0.0031989	43.3191
0.00321736	43.4444
0.00323594	43.57
0.00325462	43.696
0.00327341	43.8224
0.0032923	43.9492
0.00331131	44.0763
0.00333043	44.2037
0.00334965	44.3316
0.00336899	44.4598
0.00338844	44.5884
0.003408	44.7173
0.00342768	44.8466
0.00344747	44.9763
0.00346737	45.1064
0.00348739	45.2368
0.00350752	45.3676
0.00352777	45.4988
0.00354813	45.6304
0.00356862	45.7623
0.00358922	45.8947
0.00360994	46.0274
0.00363078	46.1605
0.00365174	46.294
0.00367282	46.4278
0.00369403	46.5621
0.00371535	46.6967
0.0037368	46.8317
0.00375837	46.9671
0.00378007	47.1029
0.00380189	47.2391
0.00382384	47.3757
0.00384592	47.5127
0.00386812	47.6501
0.00389045	47.7878
0.00391291	47.926
0.0039355	48.0646
0.00395822	48.2035
0.00398107	48.3429
0.00400405	48.4827
0.00402717	48.6228
0.00405042	48.7634
0.0040738	48.9044
0.00409732	49.0458
0.00412098	49.1876
0.00414477	49.3298
0.00416869	49.4724
0.00419276	49.6154
0.00421697	49.7589
0.00424131	49.9027
0.0042658	50.047
0.00429042	50.1917
0.00431519	50.3367
0.0043401	50.4823
0.00436516	50.6282
0.00439036	50.7746
0.0044157	50.9213
0.0044412	51.0685
0.00446684	51.2162
0.00449262	51.3642
0.00451856	51.5127
0.00454465	51.6616
0.00457088	51.8109
0.00459727	51.9607
0.00462381	52.1109
0.0046505	52.2615
0.00467735	52.4126
0.00470435	52.5641
0.00473151	52.716
0.00475883	52.8684
0.0047863	53.0212
0.00481393	53.1744
0.00484172	53.3281
0.00486968	53.4823
0.00489779	53.6369
0.00492606	53.7919
0.0049545	53.9474
0.0049831	54.1033
0.00501187	54.2597
0.00504081	54.4165
0.00506991	54.5737
0.00509918	54.7315
0.00512861	54.8897
0.00515822	55.0483
0.005188	55.2074
0.00521795	55.3669
0.00524807	55.527
0.00527837	55.6874
0.00530884	55.8484
0.00533949	56.0098
0.00537032	56.1716
0.00540132	56.334
0.0054325	56.4968
0.00546387	56.66
0.00549541	56.8238
0.00552713	56.988
0.00555904	57.1527
0.00559114	57.3178
0.00562341	57.4835
0.00565588	57.6496
0.00568853	57.8162
0.00572137	57.9833
0.0057544	58.1508
0.00578762	58.3189
0.00582103	58.4874
0.00585464	58.6564
0.00588844	58.8259
0.00592243	59.1435
0.00595662	59.314
0.00599101	59.485
0.0060256	59.6564
0.00606038	59.8284
0.00609537	60.0008
0.00613056	60.1738
0.00616595	60.3472
0.00620155	60.5212
0.00623735	60.6956
0.00627336	60.8706
0.00630957	61.046
0.006346	61.222
0.00638263	61.3984
0.00641948	61.5754
0.00645654	61.7529
0.00649382	61.9309
0.00653131	62.1094
0.00656901	62.2884
0.00660693	62.4679
0.00664508	62.648
0.00668344	62.8286
0.00672202	63.0097
0.00676083	63.1913
0.00679986	63.3734
0.00683912	63.5561
0.0068786	63.7393
0.00691831	63.923
0.00695825	64.1073
0.00699842	64.292
0.00703882	64.4774
0.00707946	64.6632
0.00712033	64.8496
0.00716143	65.0365
0.00720278	65.224
0.00724436	65.412
0.00728618	65.6005
0.00732825	65.7896
0.00737055	65.9792
0.0074131	66.1694
0.0074559	66.3601
0.00749894	66.5514
0.00754223	66.7432
0.00758578	66.9356
0.00762957	67.1285
0.00767361	67.322
0.00771792	67.5161
0.00776247	67.7107
0.00780728	67.9059
0.00785236	68.1016
0.00789769	68.2979
0.00794328	68.4947
0.00798914	68.6922
0.00803526	68.8902
0.00808165	69.0887
0.00812831	69.2879
0.00817523	69.4876
0.00822243	69.6879
0.0082699	69.8887
0.00831764	70.0902
0.00836566	70.2922
0.00841395	70.4948
0.00846253	70.698
0.00851138	70.9018
0.00856052	71.1062
0.00860994	71.3111
0.00865964	71.5167
0.00870964	71.7228
0.00875992	71.9295
0.00881049	72.1369
0.00886135	72.3448
0.00891251	72.5533
0.00896396	72.7624
0.00901571	72.9722
0.00906776	73.1825
0.00912011	73.3934
0.00917276	73.605
0.00922571	73.8171
0.00927897	74.0299
0.00933254	74.2433
0.00938642	74.4573
0.00944061	74.6719
0.00949511	74.8871
0.00954993	75.103
0.00960506	75.3195
0.00966051	75.5366
0.00971628	75.7543
0.00977237	75.9726
0.00982879	76.1916
0.00988553	76.4112
0.0099426	76.6315
0.01	76.8524
0.0100577	77.0739
0.0101158	77.296
0.0101742	77.5188
0.0102329	77.7423
0.010292	77.9664
0.0103514	78.1911
0.0104112	78.4165
0.0104713	78.6425
0.0105317	78.8692
0.0105925	79.0965
0.0106537	79.3245
0.0107152	79.5531
0.0107771	79.7824
0.0108393	80.0124
0.0109018	80.243
0.0109648	80.4743
0.0110281	80.7063
0.0110917	80.9389
0.0111558	81.1722
0.0112202	81.4062
0.011285	81.6408
0.0113501	81.8761
0.0114156	82.1121
0.0114815	82.3488
0.0115478	82.5862
0.0116145	82.8242
0.0116815	83.0629
0.011749	83.3023
0.0118168	83.5425
0.011885	83.7833
0.0119536	84.0248
0.0120226	84.2669
0.0120921	84.5098
0.0121619	84.7534
0.0122321	84.9977
0.0123027	85.2427
0.0123737	85.4884
0.0124451	85.7348
0.012517	85.9819
0.0125893	86.2298
0.0126619	86.4783
0.012735	86.7276
0.0128086	86.9776
0.0128825	87.2283
0.0129569	87.4797
0.0130317	87.7318
0.0131069	87.9847
0.0131826	88.2383
0.0132587	88.4927
0.0133352	88.7477
0.0134122	89.0035
0.0134896	89.2601
0.0135675	89.5174
0.0136458	89.7754
0.0137246	90.0341
0.0138038	90.2937
0.0138835	90.5539
0.0139637	90.8149
0.0140443	91.0767
0.0141254	91.3392
0.0142069	91.6025
0.0142889	91.8665
0.0143714	92.1313
0.0144544	92.3969
0.0145378	92.6632
0.0146218	92.9303
0.0147062	93.1981
0.0147911	93.4668
0.0148765	93.7362
0.0149624	94.0064
0.0150487	94.2773
0.0151356	94.5491
0.015223	94.8216
0.0153109	95.0949
0.0153993	95.369
0.0154882	95.6439
0.0155776	95.9196
0.0156675	96.1961
0.015758	96.4733
0.0158489	96.7514
0.0159404	97.0303
0.0160325	97.3099
0.016125	97.5904
0.0162181	97.8717
0.0163117	98.1538
0.0164059	98.4367
0.0165006	98.7205
0.0165959	99.005
0.0166917	99.2904
0.016788	99.5766
0.016885	99.8636
0.0169824	100.151
0.0170805	100.44
0.0171791	100.73
0.0172783	101.02
0.017378	101.311
0.0174783	101.603
0.0175792	101.896
0.0176807	102.19
0.0177828	102.484
0.0178855	102.78
0.0179887	103.076
0.0180926	103.373
0.018197	103.671
0.0183021	103.97
0.0184077	104.269
0.018514	104.57
0.0186209	104.871
0.0187284	105.174
0.0188365	105.477
0.0189452	105.781
0.0190546	106.086
0.0191646	106.392
0.0192752	106.698
0.0193865	107.006
0.0194984	107.314
0.019611	107.624
0.0197242	107.934
0.0198381	108.245
0.0199526	108.557
0.0200678	108.87
0.0201837	109.184
0.0203002	109.498
0.0204174	109.814
0.0205353	110.13
0.0206538	110.448
0.020773	110.766
0.020893	111.085
0.0210136	111.406
0.0211349	111.727
0.0212569	112.049
0.0213796	112.372
0.021503	112.696
0.0216272	113.021
0.021752	113.346
0.0218776	113.673
0.0220039	114.001
0.0221309	114.329
0.0222587	114.659
0.0223872	114.989
0.0225165	115.321
0.0226464	115.653
0.0227772	115.986
0.0229087	116.321
0.0230409	116.656
0.0231739	116.992
0.0233077	117.33
0.0234423	117.668
0.0235776	118.007
0.0237137	118.347
0.0238506	118.688
0.0239883	119.03
0.0241268	119.373
0.0242661	119.717
0.0244062	120.062
0.0245471	120.409
0.0246888	120.756
0.0248313	121.104
0.0249747	121.453
0.0251189	121.803
0.0252639	122.154
0.0254097	122.506
0.0255564	122.859
0.025704	123.213
0.0258523	123.568
0.0260016	123.925
0.0261517	124.282
0.0263027	124.64
0.0264545	124.999
0.0266073	125.359
0.0267609	125.721
0.0269153	126.083
0.0270707	126.447
0.027227	126.811
0.0273842	127.177
0.0275423	127.543
0.0277013	127.911
0.0278612	128.279
0.0280221	128.649
0.0281838	129.02
0.0283465	129.392
0.0285102	129.765
0.0286748	130.139
0.0288403	130.514
0.0290068	130.89
0.0291743	131.268
0.0293427	131.646
0.0295121	132.025
0.0296825	132.406
0.0298538	132.788
0.0300262	133.17
0.0301995	133.554
0.0303739	133.939
0.0305492	134.325
0.0307256	134.712
0.030903	135.101
0.0310814	135.49
0.0312608	135.881
0.0314413	136.272
0.0316228	136.665
0.0318053	137.059
0.031989	137.454
0.0321736	137.85
0.0323594	138.247
0.0325462	138.646
0.0327341	139.046
0.032923	139.446
0.0331131	139.848
0.0333043	140.251
0.0334965	140.656
0.0336899	141.061
0.0338844	141.468
0.03408	141.875
0.0342768	142.284
0.0344747	142.695
0.0346737	143.106
0.0348739	143.518
0.0350752	143.932
0.0352777	144.347
0.0354813	144.763
0.0356862	145.18
0.0358922	145.599
0.0360994	146.018
0.0363078	146.439
0.0365174	146.861
0.0367282	147.285
0.0369403	147.709
0.0371535	148.135
0.037368	148.562
0.0375837	148.99
0.0378007	149.419
0.0380189	149.85
0.0382384	150.282
0.0384592	150.715
0.0386812	151.15
0.0389045	151.585
0.0391291	152.022
0.039355	152.46
0.0395822	152.9
0.0398107	153.341
0.0400405	153.783
0.0402717	154.226
0.0405042	154.67
0.040738	155.116
0.0409732	155.563
0.0412098	156.012
0.0414477	156.461
0.0416869	156.912
0.0419276	157.365
0.0421697	157.818
0.0424131	158.273
0.042658	158.729
0.0429042	159.187
0.0431519	159.646
0.043401	160.106
0.0436516	160.567
0.0439036	161.03
0.044157	161.494
0.044412	161.96
0.0446684	162.427
0.0449262	162.895
0.0451856	163.364
0.0454465	163.835
0.0457088	164.307
0.0459727	164.781
0.0462381	165.256
0.046505	165.732
0.0467735	166.21
0.0470435	166.689
0.0473151	167.17
0.0475883	167.651
0.047863	168.135
0.0481393	168.619
0.0484172	169.105
0.0486968	169.593
0.0489779	170.082
0.0492606	170.572
0.049545	171.063
0.049831	171.557
0.0501187	172.051
0.0504081	172.547
0.0506991	173.044
0.0509918	173.543
0.0512861	174.043
0.0515822	174.545
0.05188	175.048
0.0521795	175.553
0.0524807	176.059
0.0527837	176.566
0.0530884	177.075
0.0533949	177.585
0.0537032	178.097
0.0540132	178.611
0.054325	179.125
0.0546387	179.642
0.0549541	180.16
0.0552713	180.679
0.0555904	181.2
0.0559114	181.722
0.0562341	182.246
0.0565588	182.771
0.0568853	183.298
0.0572137	183.826
0.057544	184.356
0.0578762	184.887
0.0582103	185.42
0.0585464	185.955
0.0588844	186.491
0.0592243	187.028
0.0595662	187.567
0.0599101	188.108
0.060256	188.65
0.0606038	189.194
0.0609537	189.739
0.0613056	190.286
0.0616595	190.835
0.0620155	191.385
0.0623735	191.936
0.0627336	192.49
0.0630957	193.044
0.06346	193.601
0.0638263	194.159
0.0641948	194.719
0.0645654	195.28
0.0649382	195.843
0.0653131	196.407
0.0656901	196.973
0.0660693	197.541
0.0664508	198.11
0.0668344	198.681
0.0672202	199.254
0.0676083	199.828
0.0679986	200.404
0.0683912	200.982
0.068786	201.561
0.0691831	202.142
0.0695825	202.725
0.0699842	203.309
0.0703882	203.895
0.0707946	204.483
0.0712033	205.072
0.0716143	205.664
0.0720278	206.256
0.0724436	206.851
0.0728618	207.447
0.0732825	208.045
0.0737055	208.645
0.074131	209.246
0.074559	209.849
0.0749894	210.454
0.0754223	211.061
0.0758578	211.669
0.0762957	212.279
0.0767361	212.891
0.0771792	213.505
0.0776247	214.12
0.0780728	214.737
0.0785236	215.356
0.0789769	215.977
0.0794328	216.599
0.0798914	217.224
0.0803526	217.85
0.0808165	218.478
0.0812831	219.107
0.0817523	219.739
0.0822243	220.372
0.082699	221.008
0.0831764	221.645
0.0836566	222.284
0.0841395	222.924
0.0846253	223.567
0.0851138	224.211
0.0856052	224.857
0.0860994	225.506
0.0865964	226.156
0.0870964	226.807
0.0875992	227.461
0.0881049	228.117
0.0886135	228.774
0.0891251	229.434
0.0896396	230.095
0.0901571	230.758
0.0906776	231.423
0.0912011	232.09
0.0917276	232.759
0.0922571	233.43
0.0927897	234.103
0.0933254	234.778
0.0938642	235.455
0.0944061	236.133
0.0949511	236.814
0.0954993	237.497
0.0960506	238.181
0.0966051	238.868
0.0971628	239.556
0.0977237	240.247
0.0982879	240.939
0.0988553	241.634
0.099426	242.33
0.1	243.029
0.100577	243.729
0.101158	244.432
0.101742	245.136
0.102329	245.843
0.10292	246.551
0.103514	247.262
0.104112	247.975
0.104713	248.689
0.105317	249.406
0.105925	250.125
0.106537	250.846
0.107152	251.569
0.107771	252.294
0.108393	253.021
0.109018	253.751
0.109648	254.482
0.110281	255.216
0.110917	255.951
0.111558	256.689
0.112202	257.429
0.11285	258.171
0.113501	258.915
0.114156	259.661
0.114815	260.41
0.115478	261.16
0.116145	261.913
0.116815	262.668
0.11749	263.425
0.118168	264.184
0.11885	264.946
0.119536	265.71
0.120226	266.475
0.120921	267.244
0.121619	268.014
0.122321	268.786
0.123027	269.561
0.123737	270.338
0.124451	271.117
0.12517	271.899
0.125893	272.682
0.126619	273.468
0.12735	274.257
0.128086	275.047
0.128825	275.84
0.129569	276.635
0.130317	277.432
0.131069	278.232
0.131826	279.034
0.132587	279.838
0.133352	280.645
0.134122	281.454
0.134896	282.265
0.135675	283.079
0.136458	283.895
0.137246	284.713
0.138038	285.534
0.138835	286.357
0.139637	287.182
0.140443	288.01
0.141254	288.84
0.142069	289.672
0.142889	290.507
0.143714	291.345
0.144544	292.185
0.145378	293.027
0.146218	293.871
0.147062	294.718
0.147911	295.568
0.148765	296.42
0.149624	297.274
0.150487	298.131
0.151356	298.99
0.15223	299.852
0.153109	300.716
0.153993	301.583
0.154882	302.453
0.155776	303.324
0.156675	304.199
0.15758	305.075
0.158489	305.955
0.159404	306.837
0.160325	307.721
0.16125	308.608
0.162181	309.498
0.163117	310.39
0.164059	311.284
0.165006	312.182
0.165959	313.081
0.166917	313.984
0.16788	314.889
0.16885	315.796
0.169824	316.707
0.170805	317.62
0.171791	318.535
0.172783	319.453
0.17378	320.374
0.174783	321.297
0.175792	322.224
0.176807	323.152
0.177828	324.084
0.178855	325.018
0.179887	325.955
0.180926	326.894
0.18197	327.836
0.183021	328.781
0.184077	329.729
0.18514	330.679
0.186209	331.633
0.187284	332.589
0.188365	333.547
0.189452	334.509
0.190546	335.473
0.191646	336.44
0.192752	337.409
0.193865	338.382
0.194984	339.357
0.19611	340.335
0.197242	341.316
0.198381	342.3
0.199526	343.287
0.200678	344.276
0.201837	345.269
0.203002	346.264
0.204174	347.262
0.205353	348.263
0.206538	349.267
0.20773	350.273
0.20893	351.283
0.210136	352.296
0.211349	353.311
0.212569	354.329
0.213796	355.351
0.21503	356.375
0.216272	357.402
0.21752	358.432
0.218776	359.466
0.220039	360.502
0.221309	361.541
0.222587	362.583
0.223872	363.628
0.225165	364.676
0.226464	365.727
0.227772	366.781
0.229087	367.839
0.230409	368.899
0.231739	369.962
0.233077	371.028
0.234423	372.098
0.235776	373.17
0.237137	374.246
0.238506	375.325
0.239883	376.407
0.241268	377.492
0.242661	378.58
0.244062	379.671
0.245471	380.765
0.246888	381.863
0.248313	382.963
0.249747	384.067
0.251189	385.174
0.252639	386.284
0.254097	387.398
0.255564	388.515
0.25704	389.634
0.258523	390.757
0.260016	391.884
0.261517	393.013
0.263027	394.146
0.264545	395.282
0.266073	396.422
0.267609	397.564
0.269153	398.71
0.270707	399.859
0.27227	401.012
0.273842	402.168
0.275423	403.327
0.277013	404.489
0.278612	405.655
0.280221	406.825
0.281838	407.997
0.283465	409.173
0.285102	410.353
0.286748	411.535
0.288403	412.722
0.290068	413.911
0.291743	415.104
0.293427	416.301
0.295121	417.501
0.296825	418.704
0.298538	419.911
0.300262	421.13
0.301995	422.404
0.303739	423.685
0.305492	424.972
0.307256	426.265
0.30903	427.565
0.310814	428.872
0.312608	430.185
0.314413	431.504
0.316228	432.831
0.318053	434.163
0.31989	435.503
0.321736	436.849
0.323594	438.201
0.325462	439.56
0.327341	440.926
0.32923	442.298
0.331131	443.677
0.333043	445.063
0.334965	446.455
0.336899	447.854
0.338844	449.259
0.3408	450.671
0.342768	452.089
0.344747	453.514
0.346737	454.946
0.348739	456.384
0.350752	457.829
0.352777	459.28
0.354813	460.738
0.356862	462.202
0.358922	463.673
0.360994	465.103
0.363078	466.487
0.365174	467.877
0.367282	469.273
0.369403	470.675
0.371535	472.083
0.37368	473.496
0.375837	474.915
0.378007	476.34
0.380189	477.771
0.382384	479.208
0.384592	480.65
0.386812	482.098
0.389045	483.551
0.391291	485.01
0.39355	486.475
0.395822	487.945
0.398107	489.42
0.400405	490.901
0.402717	492.387
0.405042	493.879
0.40738	495.376
0.409732	496.878
0.412098	498.385
0.414477	499.897
0.416869	501.415
0.419276	502.937
0.421697	504.465
0.424131	505.997
0.42658	507.534
0.429042	509.076
0.431519	510.623
0.43401	512.174
0.436516	513.73
0.439036	515.29
0.44157	516.854
0.44412	518.423
0.446684	519.997
0.449262	521.574
0.451856	523.155
0.454465	524.741
0.457088	526.33
0.459727	527.923
0.462381	529.519
0.46505	531.119
0.467735	532.723
0.470435	534.33
0.473151	535.94
0.475883	537.554
0.47863	539.17
0.481393	540.776
0.484172	542.371
0.486968	543.969
0.489779	545.57
0.492606	547.173
0.49545	548.779
0.49831	550.387
0.501187	551.998
0.504081	553.611
0.506991	555.227
0.509918	556.845
0.512861	558.466
0.515822	560.089
0.5188	561.715
0.521795	563.342
0.524807	564.973
0.527837	566.605
0.530884	568.24
0.533949	569.877
0.537032	571.517
0.540132	573.158
0.54325	574.802
0.546387	576.449
0.549541	578.097
0.552713	579.747
0.555904	581.4
0.559114	583.055
0.562341	584.712
0.565588	586.371
0.568853	588.033
0.572137	589.696
0.57544	591.361
0.578762	593.029
0.582103	594.698
0.585464	596.37
0.588844	598.044
0.592243	599.72
0.595662	601.397
0.599101	603.077
0.60256	604.758
0.606038	606.441
0.609537	608.125
0.613056	609.812
0.616595	611.5
0.620155	613.19
0.623735	614.882
0.627336	616.575
0.630957	618.27
0.6346	619.966
0.638263	621.664
0.641948	623.363
0.645654	625.064
0.649382	626.766
0.653131	628.469
0.656901	630.174
0.660693	631.879
0.664508	633.586
0.668344	635.293
0.672202	637.002
0.676083	638.711
0.679986	640.421
0.683912	642.132
0.68786	643.844
0.691831	645.556
0.695825	647.268
0.699842	648.981
0.703882	650.695
0.707946	652.409
0.712033	654.123
0.716143	655.837
0.720278	657.551
0.724436	659.266
0.728618	660.98
0.732825	662.694
0.737055	664.409
0.74131	666.123
0.74559	667.836
0.749894	669.55
0.754223	671.263
0.758578	672.976
0.762957	674.688
0.767361	676.4
0.771792	678.111
0.776247	679.822
0.780728	681.532
0.785236	683.241
0.789769	684.949
0.794328	686.657
0.798914	688.364
0.803526	690.069
0.808165	691.774
0.812831	693.478
0.817523	695.181
0.822243	696.882
0.82699	698.583
0.831764	700.282
0.836566	701.98
0.841395	703.676
0.846253	705.372
0.851138	707.065
0.856052	708.757
0.860994	710.448
0.865964	712.136
0.870964	713.823
0.875992	715.508
0.881049	717.191
0.886135	718.871
0.891251	720.549
0.896396	722.225
0.901571	723.898
0.906776	725.568
0.912011	727.236
0.917276	728.9
0.922571	730.562
0.927897	732.22
0.933254	733.876
0.938642	735.528
0.944061	737.176
0.949511	738.821
0.954993	740.462
0.960506	742.099
0.966051	743.732
0.971628	745.361
0.977237	746.986
0.982879	748.607
0.988553	750.224
0.99426	751.836
1	753.444
1.00577	755.047
1.01158	756.646
1.01742	758.24
1.02329	759.829
1.0292	761.414
1.03514	762.993
1.04112	764.568
1.04713	766.138
1.05317	767.703
1.05925	769.263
1.06537	770.817
1.07152	772.367
1.07771	773.911
1.08393	775.45
1.09018	776.983
1.09648	778.511
1.10281	780.034
1.10917	781.55
1.11558	783.061
1.12202	784.566
1.1285	786.065
1.13501	787.558
1.14156	789.044
1.14815	790.524
1.15478	791.998
1.16145	793.465
1.16815	794.925
1.1749	796.379
1.18168	797.826
1.1885	799.266
1.19536	800.698
1.20226	802.125
1.20921	803.546
1.21619	804.96
1.22321	806.366
1.23027	807.764
1.23737	809.155
1.24451	810.539
1.2517	811.914
1.25893	813.281
1.26619	814.64
1.2735	815.991
1.28086	817.333
1.28825	818.668
1.29569	819.993
1.30317	821.31
1.31069	822.618
1.31826	823.918
1.32587	825.208
1.33352	826.49
1.34122	827.762
1.34896	829.025
1.35675	830.279
1.36458	831.524
1.37246	832.759
1.38038	833.984
1.38835	835.2
1.39637	836.407
1.40443	837.603
1.41254	838.79
1.42069	839.967
1.42889	841.134
1.43714	842.29
1.44544	843.437
1.45378	844.573
1.46218	845.7
1.47062	846.816
1.47911	847.921
1.48765	849.017
1.49624	850.102
1.50487	851.176
1.51356	852.24
1.5223	853.293
1.53109	854.336
1.53993	855.369
1.54882	856.39
1.55776	857.401
1.56675	858.402
1.5758	859.392
1.58489	860.371
1.59404	861.339
1.60325	862.297
1.6125	863.244
1.62181	864.181
1.63117	865.107
1.64059	866.023
1.65006	866.928
1.65959	867.823
1.66917	868.707
1.6788	869.581
1.6885	870.444
1.69824	871.298
1.70805	872.141
1.71791	872.974
1.72783	873.797
1.7378	874.611
1.74783	875.414
1.75792	876.208
1.76807	876.993
1.77828	877.768
1.78855	878.534
1.79887	879.291
1.80926	880.006
1.8197	880.707
1.83021	881.4
1.84077	882.083
1.8514	882.757
1.86209	883.421
1.87284	884.075
1.88365	884.72
1.89452	885.355
1.90546	885.98
1.91646	886.595
1.92752	887.2
1.93865	887.795
1.94984	888.38
1.9611	888.954
1.97242	889.518
1.98381	890.072
1.99526	890.615
2.00678	891.148
2.01837	891.67
2.03002	892.181
2.04174	892.682
2.05353	893.172
2.06538	893.651
2.0773	894.119
2.0893	894.576
2.10136	895.022
2.11349	895.457
2.12569	895.881
2.13796	896.294
2.1503	896.696
2.16272	897.087
2.1752	897.466
2.18776	897.835
2.20039	898.192
2.21309	898.537
2.22587	898.872
2.23872	899.195
2.25165	899.507
2.26464	899.808
2.27772	900.097
2.29087	900.375
2.30409	900.642
2.31739	900.898
2.33077	901.143
2.34423	901.376
2.35776	901.598
2.37137	901.81
2.38506	902.01
2.39883	902.199
2.41268	902.385
2.42661	902.56
2.44062	902.724
2.45471	902.878
2.46888	903.02
2.48313	903.152
2.49747	903.273
2.51189	903.382
2.52639	903.481
2.54097	903.569
2.55564	903.646
2.5704	903.712
2.58523	903.767
2.60016	903.811
2.61517	903.844
2.63027	903.867
2.64545	903.879
2.66073	903.88
2.67609	903.87
2.69153	903.85
2.70707	903.819
2.7227	903.778
2.73842	903.726
2.75423	903.664
2.77013	903.592
2.78612	903.509
2.80221	903.417
2.81838	903.314
2.83465	903.202
2.85102	903.08
2.86748	902.948
2.88403	902.807
2.90068	902.657
2.91743	902.497
2.93427	902.329
2.95121	902.151
2.96825	901.965
2.98538	901.771
3.00262	901.568
3.01995	901.358
3.03739	901.139
3.05492	900.912
3.07256	900.677
3.0903	900.434
3.10814	900.183
3.12608	899.924
3.14413	899.656
3.16228	899.38
3.18053	899.096
3.1989	898.804
3.21736	898.503
3.23594	898.194
3.25462	897.877
3.27341	897.552
3.2923	897.219
3.31131	896.877
3.33043	896.527
3.34965	896.169
3.36899	895.803
3.38844	895.429
3.408	895.047
3.42768	894.656
3.44747	894.258
3.46737	893.851
3.48739	893.437
3.50752	893.015
3.52777	892.585
3.54813	892.147
3.56862	891.701
3.58922	891.248
3.60994	890.787
3.63078	890.32
3.65174	889.845
3.67282	889.363
3.69403	888.873
3.71535	888.375
3.7368	887.87
3.75837	887.357
3.78007	886.836
3.80189	886.308
3.82384	885.772
3.84592	885.228
3.86812	884.676
3.89045	884.117
3.91291	883.55
3.9355	882.976
3.95822	882.393
3.98107	881.804
4.00405	881.206
4.02717	880.601
4.05042	879.988
4.0738	879.367
4.09732	878.739
4.12098	878.103
4.14477	877.46
4.16869	876.809
4.19276	876.151
4.21697	875.485
4.24131	874.812
4.2658	874.131
4.29042	873.443
4.31519	872.748
4.3401	872.046
4.36516	871.336
4.39036	870.62
4.4157	869.896
4.4412	869.166
4.46684	868.428
4.49262	867.684
4.51856	866.933
4.54465	866.175
4.57088	865.411
4.59727	864.64
4.62381	863.863
4.6505	863.08
4.67735	862.29
4.70435	861.495
4.73151	860.694
4.75883	859.887
4.7863	859.074
4.81393	858.254
4.84172	857.427
4.86968	856.595
4.89779	855.757
4.92606	854.914
4.9545	854.066
4.9831	853.212
5.01187	852.352
5.04081	851.487
5.06991	850.616
5.09918	849.74
5.12861	848.858
5.15822	847.971
5.188	847.078
5.21795	846.18
5.24807	845.276
5.27837	844.367
5.30884	843.452
5.33949	842.532
5.37032	841.606
5.40132	840.675
5.4325	839.738
5.46387	838.796
5.49541	837.848
5.52713	836.895
5.55904	835.936
5.59114	834.972
5.62341	834.002
5.65588	833.027
5.68853	832.047
5.72137	831.061
5.7544	830.07
5.78762	829.073
5.82103	828.071
5.85464	827.064
5.88844	826.052
5.92243	825.035
5.95662	824.012
5.99101	822.984
6.0256	821.951
6.06038	820.913
6.09537	819.87
6.13056	818.822
6.16595	817.768
6.20155	816.71
6.23735	815.647
6.27336	814.578
6.30957	813.505
6.346	812.427
6.38263	811.344
6.41948	810.256
6.45654	809.163
6.49382	808.065
6.53131	806.962
6.56901	805.855
6.60693	804.743
6.64508	803.626
6.68344	802.504
6.72202	801.378
6.76083	800.247
6.79986	799.112
6.83912	797.972
6.8786	796.828
6.91831	795.68
6.95825	794.527
6.99842	793.37
7.03882	792.208
7.07946	791.042
7.12033	789.873
7.16143	788.699
7.20278	787.521
7.24436	786.339
7.28618	785.154
7.32825	783.964
7.37055	782.771
7.4131	781.573
7.4559	780.372
7.49894	779.167
7.54223	777.958
7.58578	776.745
7.62957	775.528
7.67361	774.308
7.71792	773.084
7.76247	771.855
7.80728	770.623
7.85236	769.387
7.89769	768.148
7.94328	766.904
7.98914	765.657
8.03526	764.406
8.08165	763.152
8.12831	761.893
8.17523	760.631
8.22243	759.365
8.2699	758.096
8.31764	756.823
8.36566	755.546
8.41395	754.266
8.46253	752.982
8.51138	751.694
8.56052	750.403
8.60994	749.108
8.65964	747.809
8.70964	746.507
8.75992	745.202
8.81049	743.892
8.86135	742.58
8.91251	741.264
8.96396	739.944
9.01571	738.621
9.06776	737.294
9.12011	735.964
9.17276	734.63
9.22571	733.293
9.27897	731.953
9.33254	730.609
9.38642	729.262
9.44061	727.911
9.49511	726.557
9.54993	725.2
9.60506	723.839
9.66051	722.475
9.71628	721.108
9.77237	719.737
9.82879	718.364
9.88553	716.987
9.9426	715.607
10	714.225
10.0577	712.839
10.1158	711.451
10.1742	710.059
10.2329	708.666
10.292	707.269
10.3514	705.87
10.4112	704.468
10.4713	703.064
10.5317	701.658
10.5925	700.25
10.6537	698.839
10.7152	697.426
10.7771	696.011
10.8393	694.595
10.9018	693.176
10.9648	691.755
11.0281	690.333
11.0917	688.909
11.1558	687.483
11.2202	686.055
11.285	684.625
11.3501	683.193
11.4156	681.76
11.4815	680.324
11.5478	678.886
11.6145	677.447
11.6815	676.006
11.749	674.562
11.8168	673.117
11.885	671.669
11.9536	670.22
12.0226	668.768
12.0921	667.313
12.1619	665.856
12.2321	664.397
12.3027	662.936
12.3737	661.473
12.4451	660.008
12.517	658.542
12.5893	657.073
12.6619	655.602
12.735	654.13
12.8086	652.656
12.8825	651.18
12.9569	649.703
13.0317	648.224
13.1069	646.743
13.1826	645.26
13.2587	643.776
13.3352	642.291
13.4122	640.804
13.4896	639.315
13.5675	637.825
13.6458	636.333
13.7246	634.84
13.8038	633.346
13.8835	631.85
13.9637	630.353
14.0443	628.854
14.1254	627.354
14.2069	625.853
14.2889	624.351
14.3714	622.848
14.4544	621.343
14.5378	619.838
14.6218	618.331
14.7062	616.823
14.7911	615.314
14.8765	613.804
14.9624	612.293
15.0487	610.781
15.1356	609.268
15.223	607.754
15.3109	606.239
15.3993	604.723
15.4882	603.206
15.5776	601.689
15.6675	600.17
15.758	598.651
15.8489	597.131
15.9404	595.61
16.0325	594.088
16.125	592.566
16.2181	591.043
16.3117	589.519
16.4059	587.994
16.5006	586.469
16.5959	584.943
16.6917	583.416
16.788	581.889
16.885	580.361
16.9824	578.832
17.0805	577.302
17.1791	575.772
17.2783	574.241
17.378	572.71
17.4783	571.177
17.5792	569.644
17.6807	568.111
17.7828	566.577
17.8855	565.041
17.9887	563.506
18.0926	561.984
18.197	560.462
18.3021	558.941
18.4077	557.419
18.514	555.896
18.6209	554.373
18.7284	552.85
18.8365	551.326
18.9452	549.802
19.0546	548.277
19.1646	546.753
19.2752	545.228
19.3865	543.704
19.4984	542.179
19.611	540.654
19.7242	539.129
19.8381	537.605
19.9526	536.08
20.0678	534.556
20.1837	533.031
20.3002	531.507
20.4174	529.984
20.5353	528.46
20.6538	526.937
20.773	525.415
20.893	523.893
21.0136	522.371
21.1349	520.85
21.2569	519.33
21.3796	517.81
21.503	516.291
21.6272	514.772
21.752	513.255
21.8776	511.738
22.0039	510.222
22.1309	508.706
22.2587	507.192
22.3872	505.679
22.5165	504.166
22.6464	502.655
22.7772	501.144
22.9087	499.635
23.0409	498.126
23.1739	496.619
23.3077	495.113
23.4423	493.608
23.5776	492.104
23.7137	490.601
23.8506	489.1
23.9883	487.599
24.1268	486.096
24.2661	484.593
24.4062	483.092
24.5471	481.592
24.6888	480.093
24.8313	478.596
24.9747	477.101
25.1189	475.606
25.2639	474.113
25.4097	472.622
25.5564	471.133
25.704	469.644
25.8523	468.158
26.0016	466.673
26.1517	465.19
26.3027	463.708
26.4545	462.229
26.6073	460.751
26.7609	459.274
26.9153	457.8
27.0707	456.327
27.227	454.856
27.3842	453.387
27.5423	451.92
27.7013	450.454
27.8612	448.99
28.0221	447.528
28.1838	446.068
28.3465	444.61
28.5102	443.153
28.6748	441.699
28.8403	440.246
29.0068	438.794
29.1743	437.345
29.3427	435.897
29.5121	434.451
29.6825	433.007
29.8538	431.564
30.0262	430.123
30.1995	428.683
30.3739	427.245
30.5492	425.809
30.7256	424.374
30.903	422.941
31.0814	421.51
31.2608	420.081
31.4413	418.653
31.6228	417.228
31.8053	415.804
31.989	414.382
32.1736	412.963
32.3594	411.545
32.5462	410.13
32.7341	408.716
32.923	407.305
33.1131	405.895
33.3043	404.488
33.4965	403.083
33.6899	401.681
33.8844	400.28
34.08	398.882
34.2768	397.486
34.4747	396.092
34.6737	394.701
34.8739	393.312
35.0752	391.925
35.2777	390.54
35.4813	389.158
35.6862	387.778
35.8922	386.4
36.0994	385.024
36.3078	383.649
36.5174	382.276
36.7282	380.905
36.9403	379.537
37.1535	378.172
37.368	376.809
37.5837	375.448
37.8007	374.09
38.0189	372.735
38.2384	371.382
38.4592	370.032
38.6812	368.685
38.9045	367.341
39.1291	365.999
39.355	364.66
39.5822	363.324
39.8107	361.991
40.0405	360.66
40.2717	359.333
40.5042	358.008
40.738	356.687
40.9732	355.368
41.2098	354.052
41.4477	352.739
41.6869	351.43
41.9276	350.123
42.1697	348.819
42.4131	347.519
42.658	346.221
42.9042	344.926
43.1519	343.634
43.401	342.346
43.6516	341.06
43.9036	339.777
44.157	338.497
44.412	337.221
44.6684	335.947
44.9262	334.675
45.1856	333.407
45.4465	332.142
45.7088	330.879
45.9727	329.619
46.2381	328.362
46.505	327.107
46.7735	325.855
47.0435	324.606
47.3151	323.359
47.5883	322.114
47.863	320.871
48.1393	319.635
48.4172	318.404
48.6968	317.176
48.9779	315.95
49.2606	314.727
49.545	313.506
49.831	312.287
50.1187	311.071
50.4081	309.858
50.6991	308.647
50.9918	307.439
51.2861	306.234
51.5822	305.031
51.88	303.831
52.1795	302.634
52.4807	301.44
52.7837	300.249
53.0884	299.061
53.3949	297.876
53.7032	296.694
54.0132	295.515
54.325	294.339
54.6387	293.166
54.9541	291.996
55.2713	290.829
55.5904	289.666
55.9114	288.506
56.2341	287.349
56.5588	286.195
56.8853	285.045
57.2137	283.897
57.544	282.754
57.8762	281.613
58.2103	280.476
58.5464	279.342
58.8844	278.211
59.2243	277.084
59.5662	275.96
59.9101	274.839
60.256	273.721
60.6038	272.605
60.9537	271.492
61.3056	270.383
61.6595	269.277
62.0155	268.174
62.3735	267.075
62.7336	265.979
63.0957	264.887
63.46	263.799
63.8263	262.713
64.1948	261.632
64.5654	260.554
64.9382	259.479
65.3131	258.408
65.6901	257.34
66.0693	256.276
66.4508	255.215
66.8344	254.158
67.2202	253.104
67.6083	252.054
67.9986	251.007
68.3912	249.963
68.786	248.923
69.1831	247.887
69.5825	246.853
69.9842	245.823
70.3882	244.796
70.7946	243.773
71.2033	242.752
71.6143	241.735
72.0278	240.721
72.4436	239.709
72.8618	238.701
73.2825	237.696
73.7055	236.693
74.131	235.694
74.559	234.699
74.9894	233.706
75.4223	232.716
75.8578	231.73
76.2957	230.747
76.7361	229.767
77.1792	228.79
77.6247	227.817
78.0728	226.847
78.5236	225.88
78.9769	224.917
79.4328	223.956
79.8914	223
80.3526	222.046
80.8165	221.096
81.2831	220.149
81.7523	219.205
82.2243	218.265
82.699	217.328
83.1764	216.394
83.6566	215.464
84.1395	214.537
84.6253	213.613
85.1138	212.692
85.6052	211.774
86.0994	210.86
86.5964	209.949
87.0964	209.041
87.5992	208.137
88.1049	207.235
88.6135	206.337
89.1251	205.443
89.6396	204.551
90.1571	203.663
90.6776	202.778
91.2011	201.897
91.7276	201.018
92.2571	200.143
92.7897	199.271
93.3254	198.402
93.8642	197.537
94.4061	196.674
94.9511	195.815
95.4993	194.958
96.0506	194.105
96.6051	193.254
97.1628	192.407
97.7237	191.562
98.2879	190.721
98.8553	189.882
99.426	189.047
100	188.215
100.577	187.385
101.158	186.559
101.742	185.737
102.329	184.917
102.92	184.1
103.514	183.287
104.112	182.477
104.713	181.669
105.317	180.866
105.925	180.065
106.537	179.267
107.152	178.473
107.771	177.682
108.393	176.893
109.018	176.109
109.648	175.327
110.281	174.548
110.917	173.772
111.558	173
112.202	172.23
112.85	171.464
113.501	170.7
114.156	169.94
114.815	169.182
115.478	168.427
116.145	167.675
116.815	166.926
117.49	166.179
118.168	165.435
118.85	164.694
119.536	163.955
120.226	163.219
120.921	162.484
121.619	161.751
122.321	161.02
123.027	160.293
123.737	159.567
124.451	158.845
125.17	158.125
125.893	157.408
126.619	156.693
127.35	155.981
128.086	155.272
128.825	154.566
129.569	153.862
130.317	153.162
131.069	152.464
131.826	151.769
132.587	151.077
133.352	150.388
134.122	149.702
134.896	149.019
135.675	148.339
136.458	147.662
137.246	146.989
138.038	146.318
138.835	145.65
139.637	144.985
140.443	144.324
141.254	143.665
142.069	143.01
142.889	142.358
143.714	141.708
144.544	141.063
145.378	140.42
146.218	139.78
147.062	139.144
147.911	138.51
148.765	137.88
149.624	137.253
150.487	136.629
151.356	136.008
152.23	135.39
153.109	134.775
153.993	134.164
154.882	133.555
155.776	132.95
156.675	132.347
157.58	131.747
158.489	131.15
159.404	130.557
160.325	129.966
161.25	129.377
162.181	128.792
163.117	128.209
164.059	127.629
165.006	127.051
165.959	126.477
166.917	125.904
167.88	125.334
168.85	124.766
169.824	124.201
170.805	123.638
171.791	123.077
172.783	122.518
173.78	121.961
174.783	121.405
175.792	120.852
176.807	120.3
177.828	119.75
178.855	119.201
179.887	118.653
180.926	118.121
181.97	117.591
183.021	117.063
184.077	116.535
185.14	116.01
186.209	115.485
187.284	114.962
188.365	114.441
189.452	113.921
190.546	113.402
191.646	112.885
192.752	112.37
193.865	111.856
194.984	111.344
196.11	110.833
197.242	110.324
198.381	109.817
199.526	109.311
200.678	108.808
201.837	108.306
203.002	107.805
204.174	107.307
205.353	106.81
206.538	106.315
207.73	105.822
208.93	105.331
210.136	104.842
211.349	104.355
212.569	103.87
213.796	103.387
215.03	102.905
216.272	102.426
217.52	101.949
218.776	101.474
220.039	101.001
221.309	100.53
222.587	100.061
223.872	99.5942
225.165	99.1296
226.464	98.6671
227.772	98.2067
229.087	97.7486
230.409	97.2926
231.739	96.8387
233.077	96.3871
234.423	95.9376
235.776	95.4904
237.137	95.0453
238.506	94.6025
239.883	94.1619
241.268	93.7211
242.661	93.2823
244.062	92.8457
245.471	92.4114
246.888	91.9793
248.313	91.5494
249.747	91.1217
251.189	90.6963
252.639	90.2731
254.097	89.8521
255.564	89.4334
257.04	89.0169
258.523	88.6027
260.016	88.1907
261.517	87.7809
263.027	87.3733
264.545	86.9679
266.073	86.5647
267.609	86.1636
269.153	85.7647
270.707	85.368
272.27	84.9734
273.842	84.5809
275.423	84.1905
277.013	83.8021
278.612	83.4158
280.221	83.0314
281.838	82.6491
283.465	82.2686
285.102	81.8901
286.748	81.5134
288.403	81.1386
290.068	80.7655
291.743	80.3942
293.427	80.0246
295.121	79.6566
296.825	79.2901
298.538	78.9252
300.262	78.5618
301.995	78.1996
303.739	77.8389
305.492	77.4796
307.256	77.1217
309.03	76.7653
310.814	76.4104
312.608	76.0569
314.413	75.705
316.228	75.3545
318.053	75.0055
319.89	74.658
321.736	74.3121
323.594	73.9676
325.462	73.6247
327.341	73.2833
329.23	72.9434
331.131	72.6051
333.043	72.2683
334.965	71.933
336.899	71.5992
338.844	71.267
340.8	70.9363
342.768	70.6071
344.747	70.2794
346.737	69.9532
348.739	69.6285
350.752	69.3053
352.777	68.9836
354.813	68.6633
356.862	68.3446
358.922	68.0272
360.994	67.7109
363.078	67.3958
365.174	67.082
367.282	66.7697
369.403	66.4588
371.535	66.1494
373.68	65.8415
375.837	65.535
378.007	65.23
380.189	64.9265
382.384	64.6246
384.592	64.3241
386.812	64.0251
389.045	63.7277
391.291	63.4317
393.55	63.1373
395.822	62.8444
398.107	62.5531
400.405	62.2633
402.717	61.9749
405.042	61.6882
407.38	61.4029
409.732	61.1192
412.098	60.837
414.477	60.5562
416.869	60.277
419.276	59.9993
421.697	59.7231
424.131	59.4484
426.58	59.1751
429.042	58.9033
431.519	58.6329
434.01	58.364
436.516	58.0965
439.036	57.8303
441.57	57.5656
444.12	57.3022
446.684	57.0401
449.262	56.7793
451.856	56.5199
454.465	56.2616
457.088	56.0047
459.727	55.7489
462.381	55.4943
465.05	55.2408
467.735	54.9884
470.435	54.7371
473.151	54.4868
475.883	54.2375
478.63	53.9891
481.393	53.7427
484.172	53.4983
486.968	53.2548
489.779	53.0122
492.606	52.7705
495.45	52.5298
498.31	52.29
501.187	52.0511
504.081	51.8132
506.991	51.5763
509.918	51.3403
512.861	51.1053
515.822	50.8713
518.8	50.6383
521.795	50.4063
524.807	50.1754
527.837	49.9454
530.884	49.7165
533.949	49.4886
537.032	49.2618
540.132	49.036
543.25	48.8113
546.387	48.5876
549.541	48.3649
552.713	48.1434
555.904	47.9229
559.114	47.7034
562.341	47.4851
565.588	47.2678
568.853	47.0515
572.137	46.8363
575.44	46.6222
578.762	46.4092
582.103	46.1972
585.464	45.9863
588.844	45.7765
592.243	45.5677
595.662	45.3599
599.101	45.1532
602.56	44.9471
606.038	44.742
609.537	44.5379
613.056	44.3348
616.595	44.1328
620.155	43.9318
623.735	43.7318
627.336	43.5329
630.957	43.335
634.6	43.1381
638.263	42.9423
641.948	42.7475
645.654	42.5538
649.382	42.3611
653.131	42.1694
656.901	41.9787
660.693	41.789
664.508	41.6003
668.344	41.4127
672.202	41.226
676.083	41.0402
679.986	40.8555
683.912	40.6717
687.86	40.4888
691.831	40.3069
695.825	40.1259
699.842	39.9458
703.882	39.7665
707.946	39.5881
712.033	39.4106
716.143	39.2339
720.278	39.058
724.436	38.8829
728.618	38.7085
732.825	38.5349
737.055	38.3622
741.31	38.1902
745.59	38.019
749.894	37.8487
754.223	37.6791
758.578	37.5104
762.957	37.3424
767.361	37.1753
771.792	37.009
776.247	36.8435
780.728	36.6788
785.236	36.515
789.769	36.3519
794.328	36.1897
798.914	36.0282
803.526	35.8676
808.165	35.7078
812.831	35.5488
817.523	35.3905
822.243	35.2331
826.99	35.0764
831.764	34.9205
836.566	34.7654
841.395	34.6111
846.253	34.4575
851.138	34.3046
856.052	34.1525
860.994	34.0012
865.964	33.8506
870.964	33.7008
875.992	33.5518
881.049	33.4035
886.135	33.2559
891.251	33.1091
896.396	32.9631
901.571	32.8178
906.776	32.6732
912.011	32.5294
917.276	32.3863
922.571	32.244
927.897	32.1023
933.254	31.9614
938.642	31.8212
944.061	31.6817
949.511	31.5428
954.993	31.4047
960.506	31.2672
966.051	31.1303
971.628	30.9942
977.237	30.8587
982.879	30.7238
988.553	30.5896
994.26	30.4561
1000	30.3233
1005.77	30.1911
1011.58	30.0596
1017.42	29.9287
1023.29	29.7985
1029.2	29.669
1035.14	29.5402
1041.12	29.412
1047.13	29.2845
1053.17	29.1576
1059.25	29.0314
1065.37	28.9058
1071.52	28.7808
1077.71	28.6566
1083.93	28.5329
1090.18	28.4099
1096.48	28.2875
1102.81	28.1657
1109.17	28.0445
1115.58	27.9239
1122.02	27.804
1128.5	27.6846
1135.01	27.5658
1141.56	27.4477
1148.15	27.3301
1154.78	27.213
1161.45	27.0924
1168.15	26.9681
1174.9	26.8443
1181.68	26.7212
1188.5	26.5987
1195.36	26.4768
1202.26	26.3553
1209.21	26.2342
1216.19	26.1137
1223.21	25.9938
1230.27	25.8744
1237.37	25.7556
1244.51	25.6374
1251.7	25.5198
1258.93	25.4028
1266.19	25.2863
1273.5	25.1705
1280.86	25.0553
1288.25	24.9407
1295.69	24.8266
1303.17	24.7133
1310.69	24.6005
1318.26	24.4883
1325.87	24.3768
1333.52	24.2659
1341.22	24.1557
1348.96	24.0461
1356.75	23.9371
1364.58	23.8287
1372.46	23.721
1380.38	23.614
1388.35	23.5075
1396.37	23.4018
1404.43	23.2966
1412.54	23.1922
1420.69	23.0883
1428.89	22.9851
1437.14	22.8826
1445.44	22.7807
1453.78	22.6794
1462.18	22.5788
1470.62	22.4789
1479.11	22.3795
1487.65	22.2808
1496.24	22.1828
1504.87	22.0854
1513.56	21.9886
1522.3	21.8924
1531.09	21.7968
1539.93	21.7019
1548.82	21.6076
1557.76	21.5139
1566.75	21.4207
1575.8	21.3282
1584.89	21.2363
1594.04	21.1449
1603.25	21.0541
1612.5	20.9638
1621.81	20.8741
1631.17	20.785
1640.59	20.6964
1650.06	20.6083
1659.59	20.5207
1669.17	20.4335
1678.8	20.3469
1688.5	20.2607
1698.24	20.175
1708.05	20.0898
1717.91	20.0049
1727.83	19.9204
1737.8	19.8364
1747.83	19.7527
1757.92	19.6693
1768.07	19.5863
1778.28	19.5036
1788.55	19.4211
1798.87	19.3389
1809.26	19.2593
1819.7	19.1801
1830.21	19.1013
1840.77	19.0227
1851.4	18.9443
1862.09	18.8662
1872.84	18.7884
1883.65	18.7109
1894.52	18.6336
1905.46	18.5567
1916.46	18.48
1927.52	18.4036
1938.65	18.3275
1949.84	18.2517
1961.1	18.1762
1972.42	18.101
1983.81	18.0261
1995.26	17.9516
2006.78	17.8773
2018.37	17.8034
2030.02	17.7298
2041.74	17.6565
2053.53	17.5836
2065.38	17.511
2077.3	17.4387
2089.3	17.3668
2101.36	17.2952
2113.49	17.224
2125.69	17.1531
2137.96	17.0826
2150.3	17.0124
2162.72	16.9426
2175.2	16.8732
2187.76	16.8041
2200.39	16.7354
2213.09	16.667
2225.87	16.5991
2238.72	16.5315
2251.65	16.4643
2264.64	16.3975
2277.72	16.331
2290.87	16.2649
2304.09	16.1993
2317.39	16.134
2330.77	16.0691
2344.23	16.0046
2357.76	15.9404
2371.37	15.8767
2385.06	15.8134
2398.83	15.7504
2412.68	15.6875
2426.61	15.625
2440.62	15.5628
2454.71	15.5011
2468.88	15.4397
2483.13	15.3787
2497.47	15.3181
2511.89	15.258
2526.39	15.1982
2540.97	15.1388
2555.64	15.0798
2570.4	15.0212
2585.23	14.9629
2600.16	14.9051
2615.17	14.8476
2630.27	14.7906
2645.45	14.7339
2660.73	14.6775
2676.09	14.6216
2691.53	14.566
2707.07	14.5108
2722.7	14.456
2738.42	14.4015
2754.23	14.3474
2770.13	14.2936
2786.12	14.2402
2802.21	14.1871
2818.38	14.1344
2834.65	14.082
2851.02	14.0299
2867.48	13.9781
2884.03	13.9266
2900.68	13.8755
2917.43	13.8246
2934.27	13.774
2951.21	13.7237
2968.25	13.6736
2985.38	13.6238
3002.62	13.5742
3019.95	13.5249
3037.39	13.4758
3054.92	13.4269
3072.56	13.3783
3090.3	13.3299
3108.14	13.2817
3126.08	13.2338
3144.13	13.1862
3162.28	13.1387
3180.53	13.0916
3198.9	13.0446
3217.36	12.998
3235.94	12.9515
3254.62	12.9054
3273.41	12.8594
3292.3	12.8137
3311.31	12.7683
3330.43	12.7231
3349.65	12.6782
3368.99	12.6335
3388.44	12.5891
3408	12.5449
3427.68	12.501
3447.47	12.4573
3467.37	12.4138
3487.39	12.3706
3507.52	12.3277
3527.77	12.2849
3548.13	12.2425
3568.62	12.2002
3589.22	12.1582
3609.94	12.1164
3630.78	12.0748
3651.74	12.0334
3672.82	11.9923
3694.03	11.9513
3715.35	11.9107
3736.8	11.8702
3758.37	11.83
3780.07	11.7901
3801.89	11.7504
3823.84	11.7109
3845.92	11.6717
3868.12	11.6327
3890.45	11.5939
3912.91	11.5555
3935.5	11.5172
3958.22	11.4792
3981.07	11.4414
4004.05	11.4039
4027.17	11.3667
4050.42	11.3296
4073.8	11.2929
4097.32	11.2563
4120.98	11.22
4144.77	11.184
4168.69	11.1482
4192.76	11.1126
4216.97	11.0773
4241.31	11.0422
4265.8	11.0073
4290.42	10.9727
4315.19	10.9382
4340.1	10.9041
4365.16	10.8701
4390.36	10.8364
4415.7	10.8029
4441.2	10.7695
4466.84	10.7365
4492.62	10.7036
4518.56	10.6709
4544.65	10.6384
4570.88	10.6061
4597.27	10.574
4623.81	10.5421
4650.5	10.5104
4677.35	10.4788
4704.35	10.4474
4731.51	10.4162
4758.83	10.3851
4786.3	10.3542
4813.93	10.3236
4841.72	10.2932
4869.68	10.263
4897.79	10.233
4926.06	10.2031
4954.5	10.1733
4983.1	10.1437
5011.87	10.1143
5040.81	10.085
5069.91	10.0558
5099.18	10.0268
5128.61	9.99795
5158.22	9.96925
5188	9.94071
5217.95	9.91232
5248.07	9.8841
5278.37	9.85603
5308.84	9.82812
5339.49	9.80037
5370.32	9.77278
5401.32	9.74535
5432.5	9.71809
5463.87	9.69099
5495.41	9.66405
5527.13	9.63728
5559.04	9.61067
5591.14	9.58422
5623.41	9.55794
5655.88	9.53183
5688.53	9.50588
5721.37	9.48009
5754.4	9.45447
5787.62	9.42901
5821.03	9.40371
5854.64	9.37858
5888.44	9.35362
5922.43	9.32881
5956.62	9.30417
5991.01	9.27968
6025.6	9.25531
6060.38	9.23108
6095.37	9.20701
6130.56	9.1831
6165.95	9.15935
6201.55	9.13576
6237.35	9.11233
6273.36	9.08906
6309.57	9.06594
6346	9.04299
6382.63	9.0202
6419.48	8.99756
6456.54	8.97508
6493.82	8.95276
6531.31	8.9306
6569.01	8.90859
6606.93	8.88674
6645.08	8.86503
6683.44	8.84348
6722.02	8.82209
6760.83	8.80084
6799.86	8.77973
6839.12	8.75878
6878.6	8.73796
6918.31	8.71729
6958.25	8.69676
6998.42	8.67636
7038.82	8.6561
7079.46	8.63598
7120.33	8.61598
7161.43	8.5961
7202.78	8.57635
7244.36	8.55672
7286.18	8.53721
7328.25	8.51782
7370.55	8.49854
7413.1	8.4794
7455.9	8.46037
7498.94	8.44146
7542.23	8.42268
7585.78	8.40402
7629.57	8.38548
7673.61	8.36706
7717.92	8.34877
7762.47	8.3306
7807.28	8.31255
7852.36	8.29462
7897.69	8.27681
7943.28	8.25912
7989.14	8.24156
8035.26	8.22411
8081.65	8.20678
8128.31	8.18957
8175.23	8.17248
8222.43	8.1555
8269.9	8.13864
8317.64	8.1219
8365.66	8.10526
8413.95	8.08874
8462.53	8.07233
8511.38	8.05603
8560.52	8.03984
8609.94	8.02376
8659.64	8.00779
8709.64	7.99193
8759.92	7.97619
8810.49	7.96056
8861.35	7.94504
8912.51	7.92963
8963.96	7.91433
9015.71	7.89915
9067.76	7.88407
9120.11	7.86911
9172.76	7.85426
9225.71	7.83951
9278.97	7.82488
9332.54	7.81035
9386.42	7.79593
9440.61	7.78162
9495.11	7.76742
9549.93	7.75331
9605.06	7.73932
9660.51	7.72543
9716.28	7.71163
9772.37	7.69795
9828.79	7.68436
9885.53	7.67088
9942.6	7.65749
10000	7.64421
10057.7	7.63103
10115.8	7.61795
10174.2	7.60496
10232.9	7.59207
10292	7.57929
10351.4	7.56659
10411.2	7.55399
10471.3	7.54149
10531.7	7.52907
10592.5	7.51675
10653.7	7.50452
10715.2	7.49237
10777.1	7.48032
10839.3	7.46834
10901.8	7.45645
10964.8	7.44464
11028.1	7.43291
11091.7	7.42125
11155.8	7.40967
11220.2	7.39816
11285	7.38672
11350.1	7.37534
11415.6	7.36403
11481.5	7.35278
11547.8	7.34158
11614.5	7.33044
11681.5	7.31935
11749	7.30831
11816.8	7.29731
11885	7.28635
11953.6	7.27543
12022.6	7.26441
12092.1	7.2532
12161.9	7.24207
12232.1	7.23103
12302.7	7.22006
12373.7	7.20918
12445.1	7.19838
12517	7.18766
12589.3	7.17702
12661.9	7.16646
12735	7.15598
12808.6	7.14558
12882.5	7.13525
12956.9	7.12501
13031.7	7.11484
13106.9	7.10475
13182.6	7.09473
13258.7	7.08479
13335.2	7.07493
13412.2	7.06514
13489.6	7.05543
13567.5	7.04579
13645.8	7.03623
13724.6	7.02674
13803.8	7.01732
13883.5	7.00797
13963.7	6.9987
14044.3	6.9895
14125.4	6.98037
14206.9	6.97131
14288.9	6.96233
14371.4	6.95341
14454.4	6.94456
14537.8	6.93579
14621.8	6.92708
14706.2	6.91844
14791.1	6.90987
14876.5	6.90137
14962.4	6.89293
15048.7	6.88456
15135.6	6.87626
15223	6.86803
15310.9	6.85986
15399.3	6.85175
15488.2	6.84372
15577.6	6.83574
15667.5	6.82783
15758	6.81999
15848.9	6.81221
15940.4	6.80449
16032.5	6.79684
16125	6.78925
16218.1	6.78172
16311.7	6.77425
16405.9	6.76684
16500.6	6.7595
16595.9	6.75221
16691.7	6.74499
16788	6.73782
16885	6.73072
16982.4	6.72368
17080.5	6.71669
17179.1	6.70976
17278.3	6.70289
17378	6.69608
17478.3	6.68933
17579.2	6.68263
17680.7	6.676
17782.8	6.66941
17885.5	6.66289
17988.7	6.65642
18092.6	6.65
18197	6.64364
18302.1	6.63734
18407.7	6.63109
18514	6.62489
18620.9	6.61875
18728.4	6.61266
18836.5	6.60662
18945.2	6.60064
19054.6	6.59471
19164.6	6.58884
19275.2	6.58301
19386.5	6.57724
19498.4	6.57151
19611	6.56584
19724.2	6.56022
19838.1	6.55465
19952.6	6.54913
20067.8	6.54366
20183.7	6.53824
20300.2	6.53286
20417.4	6.52754
20535.3	6.52226
20653.8	6.51704
20773	6.51186
20893	6.50672
21013.6	6.50164
21134.9	6.4966
21256.9	6.49161
21379.6	6.48667
21503	6.48177
21627.2	6.47692
21752	6.47211
21877.6	6.46735
22003.9	6.46263
22130.9	6.45796
22258.7	6.45333
22387.2	6.44874
22516.5	6.4442
22646.4	6.43971
22777.2	6.43525
22908.7	6.43084
23040.9	6.42647
23173.9	6.42215
23307.7	6.41786
23442.3	6.41362
23577.6	6.40942
23713.7	6.40526
23850.6	6.40114
23988.3	6.39706
24126.8	6.39302
24266.1	6.38903
24406.2	6.38507
24547.1	6.38115
24688.8	6.37727
24831.3	6.37343
24974.7	6.36963
25118.9	6.36587
25263.9	6.36214
25409.7	6.35846
25556.4	6.35481
25704	6.3512
25852.3	6.34762
26001.6	6.34409
26151.7	6.34059
26302.7	6.33712
26454.5	6.33369
26607.3	6.3303
26760.9	6.32695
26915.3	6.32363
27070.7	6.32034
27227	6.31709
27384.2	6.31388
27542.3	6.3107
27701.3	6.30755
27861.2	6.30444
28022.1	6.30136
28183.8	6.29831
28346.5	6.2953
28510.2	6.29232
28674.8	6.28937
28840.3	6.28646
29006.8	6.28358
29174.3	6.28073
29342.7	6.27791
29512.1	6.27512
29682.5	6.27237
29853.8	6.26965
30026.2	6.26695
30199.5	6.26429
30373.9	6.26166
30549.2	6.25906
30725.6	6.25649
30903	6.25395
31081.4	6.25144
31260.8	6.24895
31441.3	6.2465
31622.8	6.24408
31805.3	6.24168
31989	6.23931
32173.6	6.23697
32359.4	6.23466
32546.2	6.23238
32734.1	6.23013
32923	6.2279
33113.1	6.2257
33304.3	6.22352
33496.5	6.22138
33689.9	6.21926
33884.4	6.21716
34080	6.2151
34276.8	6.21306
34474.7	6.21104
34673.7	6.20905
34873.9	6.20708
35075.2	6.20514
35277.7	6.20323
35481.3	6.20134
35686.2	6.19948
35892.2	6.19763
36099.4	6.19582
36307.8	6.19403
36517.4	6.19226
36728.2	6.19051
36940.3	6.18879
37153.5	6.18709
37368	6.18542
37583.7	6.18376
37800.7	6.18213
38018.9	6.18053
38238.4	6.17894
38459.2	6.17738
38681.2	6.17584
38904.5	6.17432
39129.1	6.17282
39355	6.17134
39582.2	6.16989
39810.7	6.16845
40040.5	6.16704
40271.7	6.16565
40504.2	6.16428
40738	6.16293
40973.2	6.16159
41209.8	6.16028
41447.7	6.15899
41686.9	6.15772
41927.6	6.15647
42169.7	6.15523
42413.1	6.15402
42658	6.15282
42904.2	6.15165
43151.9	6.15049
43401	6.14935
43651.6	6.14823
43903.6	6.14713
44157	6.14604
44412	6.14498
44668.4	6.14393
44926.2	6.14289
45185.6	6.14188
45446.5	6.14088
45708.8	6.1399
45972.7	6.13894
46238.1	6.13799
46505	6.13706
46773.5	6.13615
47043.5	6.13525
47315.1	6.13437
47588.3	6.13351
47863	6.13266
48139.3	6.13182
48417.2	6.13101
48696.8	6.1302
48977.9	6.12942
49260.6	6.12864
49545	6.12789
49831	6.12714
50118.7	6.12642
50408.1	6.1257
50699.1	6.125
50991.8	6.12432
51286.1	6.12365
51582.2	6.12299
51880	6.12235
52179.5	6.12172
52480.7	6.12111
52783.7	6.1205
53088.4	6.11992
53394.9	6.11934
53703.2	6.11878
54013.2	6.11823
54325	6.11769
54638.7	6.11717
54954.1	6.11666
55271.3	6.11616
55590.4	6.11567
55911.4	6.11519
56234.1	6.11473
56558.8	6.11428
56885.3	6.11384
57213.7	6.11341
57544	6.113
57876.2	6.11259
58210.3	6.1122
58546.4	6.11182
58884.4	6.11145
59224.3	6.11109
59566.2	6.11074
59910.1	6.1104
60256	6.11007
60603.8	6.10975
60953.7	6.10945
61305.6	6.10915
61659.5	6.10886
62015.5	6.10859
62373.5	6.10832
62733.6	6.10806
63095.7	6.10781
63460	6.10758
63826.3	6.10735
64194.8	6.10713
64565.4	6.10692
64938.2	6.10672
65313.1	6.10653
65690.1	6.10634
66069.3	6.10617
66450.8	6.10601
66834.4	6.10585
67220.2	6.1057
67608.3	6.10556
67998.6	6.10543
68391.2	6.10531
68786	6.10519
69183.1	6.10509
69582.5	6.10499
69984.2	6.10489
70388.2	6.10481
70794.6	6.10474
71203.3	6.10467
71614.3	6.10461
72027.8	6.10455
72443.6	6.10451
72861.8	6.10447
73282.5	6.10444
73705.5	6.10441
74131	6.10439
74559	6.10438
74989.4	6.10438
75422.3	6.10438
75857.8	6.10439
76295.7	6.1044
76736.1	6.10443
77179.2	6.10445
77624.7	6.10449
78072.8	6.10453
78523.6	6.10457
78976.9	6.10463
79432.8	6.10469
79891.4	6.10475
80352.6	6.10482
80816.5	6.10489
81283.1	6.10497
81752.3	6.10506
82224.3	6.10515
82699	6.10525
83176.4	6.10535
83656.6	6.10546
84139.5	6.10557
84625.3	6.10569
85113.8	6.10581
85605.2	6.10594
86099.4	6.10607
86596.4	6.10621
87096.4	6.10635
87599.2	6.1065
88104.9	6.10665
88613.5	6.1068
89125.1	6.10696
89639.6	6.10713
90157.1	6.1073
90677.6	6.10747
91201.1	6.10764
91727.6	6.10782
92257.1	6.10801
92789.7	6.1082
93325.4	6.10839
93864.2	6.10858
94406.1	6.10878
94951.1	6.10899
95499.3	6.10919
96050.6	6.10941
96605.1	6.10962
97162.8	6.10984
97723.7	6.11006
98287.9	6.11028
98855.3	6.11051
99426	6.11074
100000	6.11097
100577	6.11121
101158	6.11145
101742	6.11169
102329	6.11193
102920	6.11218
103514	6.11243
104112	6.11269
104713	6.11294
105317	6.1132
105925	6.11346
106537	6.11373
107152	6.11399
107771	6.11426
108393	6.11453
109018	6.1148
109648	6.11508
110281	6.11536
110917	6.11564
111558	6.11592
112202	6.1162
112850	6.11649
113501	6.11678
114156	6.11707
114815	6.11736
115478	6.11765
116145	6.11795
116815	6.11824
117490	6.11854
118168	6.11884
118850	6.11914
119536	6.11944
120226	6.11975
120921	6.12005
121619	6.12036
122321	6.12067
123027	6.12098
123737	6.12129
124451	6.1216
125170	6.12192
125893	6.12223
126619	6.12255
127350	6.12287
128086	6.12318
128825	6.1235
129569	6.12382
130317	6.12414
131069	6.12447
131826	6.12479
132587	6.12511
133352	6.12544
134122	6.12576
134896	6.12609
135675	6.12641
136458	6.12674
137246	6.12707
138038	6.12739
138835	6.12772
139637	6.12805
140443	6.12838
141254	6.12871
142069	6.12904
142889	6.12937
143714	6.1297
144544	6.13003
145378	6.13037
146218	6.1307
147062	6.13103
147911	6.13136
148765	6.13169
149624	6.13203
150487	6.13236
151356	6.13269
152230	6.13303
153109	6.13336
153993	6.13369
154882	6.13402
155776	6.13436
156675	6.13469
157580	6.13502
158489	6.13535
159404	6.13568
160325	6.13602
161250	6.13635
162181	6.13668
163117	6.13701
164059	6.13734
165006	6.13767
165959	6.138
166917	6.13833
167880	6.13866
168850	6.13899
169824	6.13932
170805	6.13965
171791	6.13997
172783	6.1403
173780	6.14063
174783	6.14095
175792	6.14128
176807	6.1416
177828	6.14193
178855	6.14225
179887	6.14258
180926	6.1429
181970	6.14322
183021	6.14354
184077	6.14386
185140	6.14418
186209	6.1445
187284	6.14482
188365	6.14513
189452	6.14545
190546	6.14577
191646	6.14608
192752	6.1464
193865	6.14671
194984	6.14702
196110	6.14733
197242	6.14764
198381	6.14795
199526	6.14826
200678	6.14857
201837	6.14887
203002	6.14918
204174	6.14949
205353	6.14979
206538	6.15009
207730	6.15039
208930	6.15069
210136	6.15099
211349	6.15129
212569	6.15159
213796	6.15188
215030	6.15218
216272	6.15247
217520	6.15277
218776	6.15306
220039	6.15335
221309	6.15364
222587	6.15393
223872	6.15421
225165	6.1545
226464	6.15478
227772	6.15507
229087	6.15535
230409	6.15563
231739	6.15591
233077	6.15619
234423	6.15646
235776	6.15674
237137	6.15701
238506	6.15729
239883	6.15756
241268	6.15783
242661	6.1581
244062	6.15837
245471	6.15863
246888	6.1589
248313	6.15916
249747	6.15943
251189	6.15969
252639	6.15995
254097	6.16021
255564	6.16046
257040	6.16072
258523	6.16097
260016	6.16123
261517	6.16148
263027	6.16173
264545	6.16198
266073	6.16222
267609	6.16247
269153	6.16271
270707	6.16296
272270	6.1632
273842	6.16344
275423	6.16368
277013	6.16391
278612	6.16415
280221	6.16438
281838	6.16462
283465	6.16485
285102	6.16508
286748	6.16531
288403	6.16553
290068	6.16576
291743	6.16598
293427	6.16621
295121	6.16643
296825	6.16665
298538	6.16687
300262	6.16708
301995	6.1673
303739	6.16751
305492	6.16772
307256	6.16793
309030	6.16814
310814	6.16835
312608	6.16856
314413	6.16876
316228	6.16896
318053	6.16917
319890	6.16937
321736	6.16956
323594	6.16976
325462	6.16996
327341	6.17015
329230	6.17034
331131	6.17053
333043	6.17072
334965	6.17091
336899	6.1711
338844	6.17128
340800	6.17147
342768	6.17165
344747	6.17183
346737	6.17201
348739	6.17219
350752	6.17236
352777	6.17254
354813	6.17271
356862	6.17288
358922	6.17305
360994	6.17322
363078	6.17339
365174	6.17355
367282	6.17372
369403	6.17388
371535	6.17404
373680	6.1742
375837	6.17436
378007	6.17451
380189	6.17467
382384	6.17482
384592	6.17497
386812	6.17512
389045	6.17527
391291	6.17542
393550	6.17557
395822	6.17571
398107	6.17586
400405	6.176
402717	6.17614
405042	6.17628
407380	6.17642
409732	6.17655
412098	6.17669
414477	6.17682
416869	6.17695
419276	6.17708
421697	6.17721
424131	6.17734
426580	6.17746
429042	6.17759
431519	6.17771
434010	6.17783
436516	6.17795
439036	6.17807
441570	6.17819
444120	6.17831
446684	6.17842
449262	6.17854
451856	6.17865
454465	6.17876
457088	6.17887
459727	6.17898
462381	6.17908
465050	6.17919
467735	6.17929
470435	6.1794
473151	6.1795
475883	6.1796
478630	6.1797
481393	6.1798
484172	6.17989
486968	6.17999
489779	6.18008
492606	6.18017
495450	6.18026
498310	6.18035
501187	6.18044
504081	6.18053
506991	6.18062
509918	6.1807
512861	6.18078
515822	6.18087
518800	6.18095
521795	6.18103
524807	6.18111
527837	6.18118
530884	6.18126
533949	6.18133
537032	6.18141
540132	6.18148
543250	6.18155
546387	6.18162
549541	6.18169
552713	6.18176
555904	6.18183
559114	6.18189
562341	6.18196
565588	6.18202
568853	6.18208
572137	6.18214
575440	6.1822
578762	6.18226
582103	6.18232
585464	6.18238
588844	6.18243
592243	6.18249
595662	6.18254
599101	6.18259
602560	6.18264
606038	6.18269
609537	6.18274
613056	6.18279
616595	6.18284
620155	6.18289
623735	6.18293
627336	6.18298
630957	6.18302
634600	6.18306
638263	6.1831
641948	6.18314
645654	6.18318
649382	6.18322
653131	6.18326
656901	6.18329
660693	6.18333
664508	6.18336
668344	6.1834
672202	6.18343
676083	6.18346
679986	6.18349
683912	6.18353
687860	6.18355
691831	6.18358
695825	6.18361
699842	6.18364
703882	6.18366
707946	6.18369
712033	6.18371
716143	6.18374
720278	6.18376
724436	6.18378
728618	6.1838
732825	6.18382
737055	6.18384
741310	6.18386
745590	6.18388
749894	6.1839
754223	6.18391
758578	6.18393
762957	6.18395
767361	6.18396
771792	6.18397
776247	6.18399
780728	6.184
785236	6.18401
789769	6.18402
794328	6.18403
798914	6.18404
803526	6.18405
808165	6.18406
812831	6.18407
817523	6.18408
822243	6.18408
826990	6.18409
831764	6.1841
836566	6.1841
841395	6.18411
846253	6.18411
851138	6.18411
856052	6.18412
860994	6.18412
865964	6.18412
870964	6.18412
875992	6.18412
881049	6.18413
886135	6.18413
891251	6.18412
896396	6.18412
901571	6.18412
906776	6.18412
912011	6.18412
917276	6.18412
922571	6.18411
927897	6.18411
933254	6.18411
938642	6.1841
944061	6.1841
949511	6.18409
954993	6.18409
960506	6.18408
966051	6.18408
971628	6.18407
977237	6.18407
982879	6.18406
988553	6.18405
994260	6.18405
1e+06	6.18404
1.00577e+06	6.18403
1.01158e+06	6.18402
1.01742e+06	6.18402
1.02329e+06	6.18401
1.0292e+06	6.184
1.03514e+06	6.18399
1.04112e+06	6.18398
1.04713e+06	6.18397
1.05317e+06	6.18396
1.05925e+06	6.18395
1.06537e+06	6.18395
1.07152e+06	6.18394
1.07771e+06	6.18393
1.08393e+06	6.18392
1.09018e+06	6.18391
1.09648e+06	6.1839
1.10281e+06	6.18389
1.10917e+06	6.18388
1.11558e+06	6.18387
1.12202e+06	6.18386
1.1285e+06	6.18385
1.13501e+06	6.18384
1.14156e+06	6.18382
1.14815e+06	6.18381
1.15478e+06	6.1838
1.16145e+06	6.18379
1.16815e+06	6.18378
1.1749e+06	6.18377
1.18168e+06	6.18376
1.1885e+06	6.18375
1.19536e+06	6.18374
1.20226e+06	6.18373
1.20921e+06	6.18372
1.21619e+06	6.18371
1.22321e+06	6.1837
1.23027e+06	6.18369
1.23737e+06	6.18368
1.24451e+06	6.18368
1.2517e+06	6.18367
1.25893e+06	6.18366
1.26619e+06	6.18365
1.2735e+06	6.18364
1.28086e+06	6.18363
1.28825e+06	6.18362
1.29569e+06	6.18361
1.30317e+06	6.1836
1.31069e+06	6.18359
1.31826e+06	6.18359
1.32587e+06	6.18358
1.33352e+06	6.18357
1.34122e+06	6.18356
1.34896e+06	6.18355
1.35675e+06	6.18354
1.36458e+06	6.18354
1.37246e+06	6.18353
1.38038e+06	6.18352
1.38835e+06	6.18351
1.39637e+06	6.1835
1.40443e+06	6.1835
1.41254e+06	6.18349
1.42069e+06	6.18348
1.42889e+06	6.18347
1.43714e+06	6.18347
1.44544e+06	6.18346
1.45378e+06	6.18345
1.46218e+06	6.18344
1.47062e+06	6.18344
1.47911e+06	6.18343
1.48765e+06	6.18342
1.49624e+06	6.18341
1.50487e+06	6.18341
1.51356e+06	6.1834
1.5223e+06	6.18339
1.53109e+06	6.18339
1.53993e+06	6.18338
1.54882e+06	6.18337
1.55776e+06	6.18337
1.56675e+06	6.18336
1.5758e+06	6.18335
1.58489e+06	6.18335
1.59404e+06	6.18334
1.60325e+06	6.18333
1.6125e+06	6.18333
1.62181e+06	6.18332
1.63117e+06	6.18332
1.64059e+06	6.18331
1.65006e+06	6.1833
1.65959e+06	6.1833
1.66917e+06	6.18329
1.6788e+06	6.18329
1.6885e+06	6.18328
1.69824e+06	6.18327
1.70805e+06	6.18327
1.71791e+06	6.18326
1.72783e+06	6.18326
1.7378e+06	6.18325
1.74783e+06	6.18325
1.75792e+06	6.18324
1.76807e+06	6.18324
1.77828e+06	6.18323
1.78855e+06	6.18322
1.79887e+06	6.18322
1.80926e+06	6.18321
1.8197e+06	6.18321
1.83021e+06	6.1832
1.84077e+06	6.1832
1.8514e+06	6.18319
1.86209e+06	6.18319
1.87284e+06	6.18318
1.88365e+06	6.18318
1.89452e+06	6.18317
1.90546e+06	6.18317
1.91646e+06	6.18316
1.92752e+06	6.18316
1.93865e+06	6.18315
1.94984e+06	6.18315
1.9611e+06	6.18315
1.97242e+06	6.18314
1.98381e+06	6.18314
1.99526e+06	6.18313
2.00678e+06	6.18313
2.01837e+06	6.18312
2.03002e+06	6.18312
2.04174e+06	6.18311
2.05353e+06	6.18311
2.06538e+06	6.1831
2.0773e+06	6.1831
2.0893e+06	6.1831
2.10136e+06	6.18309
2.11349e+06	6.18309
2.12569e+06	6.18308
2.13796e+06	6.18308
2.1503e+06	6.18308
2.16272e+06	6.18307
2.1752e+06	6.18307
2.18776e+06	6.18306
2.20039e+06	6.18306
2.21309e+06	6.18306
2.22587e+06	6.18305
2.23872e+06	6.18305
2.25165e+06	6.18304
2.26464e+06	6.18304
2.27772e+06	6.18304
2.29087e+06	6.18303
2.30409e+06	6.18303
2.31739e+06	6.18303
2.33077e+06	6.18302
2.34423e+06	6.18302
2.35776e+06	6.18302
2.37137e+06	6.18301
2.38506e+06	6.18301
2.39883e+06	6.183
2.41268e+06	6.183
2.42661e+06	6.183
2.44062e+06	6.18299
2.45471e+06	6.18299
2.46888e+06	6.18299
2.48313e+06	6.18298
2.49747e+06	6.18298
2.51189e+06	6.18298
2.52639e+06	6.18297
2.54097e+06	6.18297
2.55564e+06	6.18297
2.5704e+06	6.18297
2.58523e+06	6.18296
2.60016e+06	6.18296
2.61517e+06	6.18296
2.63027e+06	6.18295
2.64545e+06	6.18295
2.66073e+06	6.18295
2.67609e+06	6.18294
2.69153e+06	6.18294
2.70707e+06	6.18294
2.7227e+06	6.18294
2.73842e+06	6.18293
2.75423e+06	6.18293
2.77013e+06	6.18293
2.78612e+06	6.18292
2.80221e+06	6.18292
2.81838e+06	6.18292
2.83465e+06	6.18292
2.85102e+06	6.18291
2.86748e+06	6.18291
2.88403e+06	6.18291
2.90068e+06	6.18291
2.91743e+06	6.1829
2.93427e+06	6.1829
2.95121e+06	6.1829
2.96825e+06	6.18289
2.98538e+06	6.18289
3.00262e+06	6.18289
3.01995e+06	6.18289
3.03739e+06	6.18288
3.05492e+06	6.18288
3.07256e+06	6.18288
3.0903e+06	6.18288
3.10814e+06	6.18288
3.12608e+06	6.18287
3.14413e+06	6.18287
3.16228e+06	6.18287
3.18053e+06	6.18287
3.1989e+06	6.18286
3.21736e+06	6.18286
3.23594e+06	6.18286
3.25462e+06	6.18286
3.27341e+06	6.18285
3.2923e+06	6.18285
3.31131e+06	6.18285
3.33043e+06	6.18285
3.34965e+06	6.18285
3.36899e+06	6.18284
3.38844e+06	6.18284
3.408e+06	6.18284
3.42768e+06	6.18284
3.44747e+06	6.18284
3.46737e+06	6.18283
3.48739e+06	6.18283
3.50752e+06	6.18283
3.52777e+06	6.18283
3.54813e+06	6.18282
3.56862e+06	6.18282
3.58922e+06	6.18282
3.60994e+06	6.18282
3.63078e+06	6.18282
3.65174e+06	6.18282
3.67282e+06	6.18281
3.69403e+06	6.18281
3.71535e+06	6.18281
3.7368e+06	6.18281
3.75837e+06	6.18281
3.78007e+06	6.1828
3.80189e+06	6.1828
3.82384e+06	6.1828
3.84592e+06	6.1828
3.86812e+06	6.1828
3.89045e+06	6.1828
3.91291e+06	6.18279
3.9355e+06	6.18279
3.95822e+06	6.18279
3.98107e+06	6.18279
4.00405e+06	6.18279
4.02717e+06	6.18278
4.05042e+06	6.18278
4.0738e+06	6.18278
4.09732e+06	6.18278
4.12098e+06	6.18278
4.14477e+06	6.18278
4.16869e+06	6.18277
4.19276e+06	6.18277
4.21697e+06	6.18277
4.24131e+06	6.18277
4.2658e+06	6.18277
4.29042e+06	6.18277
4.31519e+06	6.18277
4.3401e+06	6.18276
4.36516e+06	6.18276
4.39036e+06	6.18276
4.4157e+06	6.18276
4.4412e+06	6.18276
4.46684e+06	6.18276
4.49262e+06	6.18276
4.51856e+06	6.18275
4.54465e+06	6.18275
4.57088e+06	6.18275
4.59727e+06	6.18275
4.62381e+06	6.18275
4.6505e+06	6.18275
4.67735e+06	6.18275
4.70435e+06	6.18274
4.73151e+06	6.18274
4.75883e+06	6.18274
4.7863e+06	6.18274
4.81393e+06	6.18274
4.84172e+06	6.18274
4.86968e+06	6.18274
4.89779e+06	6.18273
4.92606e+06	6.18273
4.9545e+06	6.18273
4.9831e+06	6.18273
5.01187e+06	6.18273
5.04081e+06	6.18273
5.06991e+06	6.18273
5.09918e+06	6.18273
5.12861e+06	6.18272
5.15822e+06	6.18272
5.188e+06	6.18272
5.21795e+06	6.18272
5.24807e+06	6.18272
5.27837e+06	6.18272
5.30884e+06	6.18272
5.33949e+06	6.18272
5.37032e+06	6.18271
5.40132e+06	6.18271
5.4325e+06	6.18271
5.46387e+06	6.18271
5.49541e+06	6.18271
5.52713e+06	6.18271
5.55904e+06	6.18271
5.59114e+06	6.18271
5.62341e+06	6.18271
5.65588e+06	6.1827
5.68853e+06	6.1827
5.72137e+06	6.1827
5.7544e+06	6.1827
5.78762e+06	6.1827
5.82103e+06	6.1827
5.85464e+06	6.1827
5.88844e+06	6.1827
5.92243e+06	6.1827
5.95662e+06	6.1827
5.99101e+06	6.18269
6.0256e+06	6.18269
6.06038e+06	6.18269
6.09537e+06	6.18269
6.13056e+06	6.18269
6.16595e+06	6.18269
6.20155e+06	6.18269
6.23735e+06	6.18269
6.27336e+06	6.18269
6.30957e+06	6.18269
6.346e+06	6.18268
6.38263e+06	6.18268
6.41948e+06	6.18268
6.45654e+06	6.18268
6.49382e+06	6.18268
6.53131e+06	6.18268
6.56901e+06	6.18268
6.60693e+06	6.18268
6.64508e+06	6.18268
6.68344e+06	6.18268
6.72202e+06	6.18268
6.76083e+06	6.18267
6.79986e+06	6.18267
6.83912e+06	6.18267
6.8786e+06	6.18267
6.91831e+06	6.18267
6.95825e+06	6.18267
6.99842e+06	6.18267
7.03882e+06	6.18267
7.07946e+06	6.18267
7.12033e+06	6.18267
7.16143e+06	6.18267
7.20278e+06	6.18267
7.24436e+06	6.18267
7.28618e+06	6.18266
7.32825e+06	6.18266
7.37055e+06	6.18266
7.4131e+06	6.18266
7.4559e+06	6.18266
7.49894e+06	6.18266
7.54223e+06	6.18266
7.58578e+06	6.18266
7.62957e+06	6.18266
7.67361e+06	6.18266
7.71792e+06	6.18266
7.76247e+06	6.18266
7.80728e+06	6.18266
7.85236e+06	6.18265
7.89769e+06	6.18265
7.94328e+06	6.18265
7.98914e+06	6.18265
8.03526e+06	6.18265
8.08165e+06	6.18265
8.12831e+06	6.18265
8.17523e+06	6.18265
8.22243e+06	6.18265
8.2699e+06	6.18265
8.31764e+06	6.18265
8.36566e+06	6.18265
8.41395e+06	6.18265
8.46253e+06	6.18265
8.51138e+06	6.18264
8.56052e+06	6.18264
8.60994e+06	6.18264
8.65964e+06	6.18264
8.70964e+06	6.18264
8.75992e+06	6.18264
8.81049e+06	6.18264
8.86135e+06	6.18264
8.91251e+06	6.18264
8.96396e+06	6.18264
9.01571e+06	6.18264
9.06776e+06	6.18264
9.12011e+06	6.18264
9.17276e+06	6.18264
9.22571e+06	6.18264
9.27897e+06	6.18264
9.33254e+06	6.18263
9.38642e+06	6.18263
9.44061e+06	6.18263
9.49511e+06	6.18263
9.54993e+06	6.18263
9.60506e+06	6.18263
9.66051e+06	6.18263
9.71628e+06	6.18263
9.77237e+06	6.18263
9.82879e+06	6.18263
9.88553e+06	6.18263
9.9426e+06	6.18263
1e+07	6.18263
