Stopping power dEdx from Ionisation for He3 Z = 2 in G4_Si, process name: ionIoni
E [MeV]	dEdx [MeV/mm]
0.001	13.1946
0.00100577	13.2461
0.00101158	13.2979
0.00101742	13.3501
0.00102329	13.4026
0.0010292	13.4554
0.00103514	13.5085
0.00104112	13.562
0.00104713	13.6158
0.00105317	13.6699
0.00105925	13.7243
0.00106537	13.7791
0.00107152	13.8342
0.00107771	13.8896
0.00108393	13.9453
0.00109018	14.0014
0.00109648	14.0578
0.00110281	14.1146
0.00110917	14.1716
0.00111558	14.229
0.00112202	14.2868
0.0011285	14.3448
0.00113501	14.3985
0.00114156	14.4507
0.00114815	14.5033
0.00115478	14.5562
0.00116145	14.6093
0.00116815	14.6628
0.0011749	14.7165
0.00118168	14.7706
0.0011885	14.825
0.00119536	14.8796
0.00120226	14.9346
0.00120921	14.9899
0.00121619	15.0454
0.00122321	15.1013
0.00123027	15.1575
0.00123737	15.2139
0.00124451	15.2707
0.0012517	15.3277
0.00125893	15.3851
0.00126619	15.4428
0.0012735	15.5007
0.00128086	15.559
0.00128825	15.6175
0.00129569	15.6764
0.00130317	15.7355
0.00131069	15.795
0.00131826	15.8547
0.00132587	15.9147
0.00133352	15.975
0.00134122	16.0356
0.00134896	16.0965
0.00135675	16.1577
0.00136458	16.2191
0.00137246	16.2809
0.00138038	16.3429
0.00138835	16.4052
0.00139637	16.4678
0.00140443	16.5307
0.00141254	16.5938
0.00142069	16.6572
0.00142889	16.7209
0.00143714	16.7849
0.00144544	16.8491
0.00145378	16.9136
0.00146218	16.9783
0.00147062	17.0433
0.00147911	17.1086
0.00148765	17.1741
0.00149624	17.2399
0.00150487	17.3059
0.00151356	17.3713
0.0015223	17.4367
0.00153109	17.5024
0.00153993	17.5683
0.00154882	17.6344
0.00155776	17.7008
0.00156675	17.7674
0.0015758	17.8343
0.00158489	17.9014
0.00159404	17.9687
0.00160325	18.0363
0.0016125	18.1042
0.00162181	18.1723
0.00163117	18.2406
0.00164059	18.3092
0.00165006	18.378
0.00165959	18.4471
0.00166917	18.5165
0.0016788	18.5861
0.0016885	18.6559
0.00169824	18.726
0.00170805	18.7964
0.00171791	18.867
0.00172783	18.9379
0.0017378	19.0091
0.00174783	19.0805
0.00175792	19.1522
0.00176807	19.2241
0.00177828	19.2963
0.00178855	19.3688
0.00179887	19.4416
0.00180926	19.5146
0.0018197	19.5879
0.00183021	19.6615
0.00184077	19.7354
0.0018514	19.8095
0.00186209	19.8839
0.00187284	19.9587
0.00188365	20.0337
0.00189452	20.1088
0.00190546	20.1843
0.00191646	20.2601
0.00192752	20.3361
0.00193865	20.4125
0.00194984	20.4891
0.0019611	20.566
0.00197242	20.6433
0.00198381	20.7208
0.00199526	20.7986
0.00200678	20.8767
0.00201837	20.9551
0.00203002	21.0338
0.00204174	21.1128
0.00205353	21.1921
0.00206538	21.2717
0.0020773	21.3516
0.0020893	21.4318
0.00210136	21.5123
0.00211349	21.5931
0.00212569	21.6743
0.00213796	21.7557
0.0021503	21.8374
0.00216272	21.9195
0.0021752	22.0018
0.00218776	22.0845
0.00220039	22.1675
0.00221309	22.2508
0.00222587	22.3344
0.00223872	22.4183
0.00225165	22.5026
0.00226464	22.5872
0.00227772	22.6721
0.00229087	22.7573
0.00230409	22.8429
0.00231739	22.9287
0.00233077	23.0149
0.00234423	23.1015
0.00235776	23.1883
0.00237137	23.2755
0.00238506	23.363
0.00239883	23.4509
0.00241268	23.539
0.00242661	23.6276
0.00244062	23.7164
0.00245471	23.8056
0.00246888	23.8951
0.00248313	23.9849
0.00249747	24.0751
0.00251189	24.1656
0.00252639	24.2565
0.00254097	24.3477
0.00255564	24.4393
0.0025704	24.5312
0.00258523	24.6234
0.00260016	24.716
0.00261517	24.809
0.00263027	24.9022
0.00264545	24.9959
0.00266073	25.0899
0.00267609	25.1842
0.00269153	25.2789
0.00270707	25.374
0.0027227	25.4694
0.00273842	25.5652
0.00275423	25.6614
0.00277013	25.7579
0.00278612	25.8548
0.00280221	25.952
0.00281838	26.0497
0.00283465	26.1477
0.00285102	26.246
0.00286748	26.3448
0.00288403	26.4439
0.00290068	26.5434
0.00291743	26.6433
0.00293427	26.7436
0.00295121	26.8443
0.00296825	26.9453
0.00298538	27.0468
0.00300262	27.1486
0.00301995	27.2335
0.00303739	27.3064
0.00305492	27.4094
0.00307256	27.5127
0.0030903	27.6165
0.00310814	27.7207
0.00312608	27.8252
0.00314413	27.9302
0.00316228	28.0356
0.00318053	28.1413
0.0031989	28.2475
0.00321736	28.3541
0.00323594	28.461
0.00325462	28.5684
0.00327341	28.6762
0.0032923	28.7844
0.00331131	28.8929
0.00333043	29.0019
0.00334965	29.1113
0.00336899	29.2211
0.00338844	29.3313
0.003408	29.4419
0.00342768	29.5529
0.00344747	29.6643
0.00346737	29.7761
0.00348739	29.8884
0.00350752	30.001
0.00352777	30.114
0.00354813	30.2275
0.00356862	30.3413
0.00358922	30.4556
0.00360994	30.5702
0.00363078	30.6853
0.00365174	30.8008
0.00367282	30.9167
0.00369403	31.033
0.00371535	31.1497
0.0037368	31.2668
0.00375837	31.3843
0.00378007	31.5023
0.00380189	31.6206
0.00382384	31.7394
0.00384592	31.8586
0.00386812	31.9783
0.00389045	32.0983
0.00391291	32.2188
0.0039355	32.3397
0.00395822	32.4611
0.00398107	32.5829
0.00400405	32.7051
0.00402717	32.8278
0.00405042	32.9509
0.0040738	33.0745
0.00409732	33.1985
0.00412098	33.323
0.00414477	33.448
0.00416869	33.5734
0.00419276	33.6993
0.00421697	33.8257
0.00424131	33.9526
0.0042658	34.08
0.00429042	34.2079
0.00431519	34.3363
0.0043401	34.4652
0.00436516	34.5946
0.00439036	34.7245
0.0044157	34.855
0.0044412	34.986
0.00446684	35.1175
0.00449262	35.2496
0.00451856	35.3822
0.00454465	35.5154
0.00457088	35.6492
0.00459727	35.7835
0.00462381	35.9184
0.0046505	36.0538
0.00467735	36.1898
0.00470435	36.3263
0.00473151	36.4634
0.00475883	36.601
0.0047863	36.7391
0.00481393	36.8778
0.00484172	37.017
0.00486968	37.1567
0.00489779	37.2969
0.00492606	37.4376
0.0049545	37.5789
0.0049831	37.7206
0.00501187	37.8628
0.00504081	38.0056
0.00506991	38.1488
0.00509918	38.2924
0.00512861	38.4366
0.00515822	38.5812
0.005188	38.7262
0.00521795	38.8717
0.00524807	39.0177
0.00527837	39.164
0.00530884	39.3108
0.00533949	39.4581
0.00537032	39.6058
0.00540132	39.7539
0.0054325	39.9025
0.00546387	40.0516
0.00549541	40.2013
0.00552713	40.3514
0.00555904	40.502
0.00559114	40.6532
0.00562341	40.8049
0.00565588	40.9573
0.00568853	41.1102
0.00572137	41.2637
0.0057544	41.4178
0.00578762	41.5725
0.00582103	41.7279
0.00585464	41.884
0.00588844	42.0408
0.00592243	42.1983
0.00595662	42.3565
0.00599101	42.5155
0.0060256	42.6753
0.00606038	42.8358
0.00609537	42.9972
0.00613056	43.1593
0.00616595	43.3222
0.00620155	43.4858
0.00623735	43.6502
0.00627336	43.8152
0.00630957	43.981
0.006346	44.1475
0.00638263	44.3147
0.00641948	44.4825
0.00645654	44.6509
0.00649382	44.82
0.00653131	44.9896
0.00656901	45.1599
0.00660693	45.3307
0.00664508	45.5021
0.00668344	45.6739
0.00672202	45.8463
0.00676083	46.0191
0.00679986	46.1924
0.00683912	46.3661
0.0068786	46.5403
0.00691831	46.7149
0.00695825	46.8901
0.00699842	47.0657
0.00703882	47.2418
0.00707946	47.4185
0.00712033	47.5958
0.00716143	47.7736
0.00720278	47.952
0.00724436	48.1311
0.00728618	48.3107
0.00732825	48.4911
0.00737055	48.6721
0.0074131	48.8538
0.0074559	49.0362
0.00749894	49.2194
0.00754223	49.4033
0.00758578	49.5882
0.00762957	49.7738
0.00767361	49.9602
0.00771792	50.1474
0.00776247	50.3354
0.00780728	50.5242
0.00785236	50.7139
0.00789769	50.9043
0.00794328	51.0955
0.00798914	51.2875
0.00803526	51.4802
0.00808165	51.6738
0.00812831	51.8682
0.00817523	52.0634
0.00822243	52.2593
0.0082699	52.4561
0.00831764	52.6536
0.00836566	52.8519
0.00841395	53.051
0.00846253	53.2509
0.00851138	53.4516
0.00856052	53.6531
0.00860994	53.8553
0.00865964	54.0583
0.00870964	54.2621
0.00875992	54.4666
0.00881049	54.6719
0.00886135	54.878
0.00891251	55.0848
0.00896396	55.2924
0.00901571	55.5008
0.00906776	55.7099
0.00912011	55.9197
0.00917276	56.1303
0.00922571	56.3417
0.00927897	56.5537
0.00933254	56.7665
0.00938642	56.9801
0.00944061	57.1942
0.00949511	57.409
0.00954993	57.6245
0.00960506	57.8407
0.00966051	58.0577
0.00971628	58.2754
0.00977237	58.4939
0.00982879	58.7131
0.00988553	58.9331
0.0099426	59.1538
0.01	59.3754
0.0100577	59.5977
0.0101158	59.8208
0.0101742	60.0446
0.0102329	60.2693
0.010292	60.4948
0.0103514	60.7211
0.0104112	60.9483
0.0104713	61.1762
0.0105317	61.4051
0.0105925	61.6347
0.0106537	61.8652
0.0107152	62.0966
0.0107771	62.3289
0.0108393	62.5621
0.0109018	62.7961
0.0109648	63.0311
0.0110281	63.267
0.0110917	63.5038
0.0111558	63.7415
0.0112202	63.9803
0.011285	64.2199
0.0113501	64.4607
0.0114156	64.7024
0.0114815	64.9451
0.0115478	65.1888
0.0116145	65.4335
0.0116815	65.6791
0.011749	65.9257
0.0118168	66.1732
0.011885	66.4217
0.0119536	66.6712
0.0120226	66.9216
0.0120921	67.1729
0.0121619	67.4252
0.0122321	67.6785
0.0123027	67.9326
0.0123737	68.1877
0.0124451	68.4437
0.012517	68.7006
0.0125893	68.9585
0.0126619	69.2172
0.012735	69.4768
0.0128086	69.7373
0.0128825	69.9987
0.0129569	70.261
0.0130317	70.5241
0.0131069	70.7881
0.0131826	71.0529
0.0132587	71.3186
0.0133352	71.5852
0.0134122	71.8526
0.0134896	72.1209
0.0135675	72.3901
0.0136458	72.6601
0.0137246	72.9311
0.0138038	73.203
0.0138835	73.4759
0.0139637	73.7497
0.0140443	74.0245
0.0141254	74.3003
0.0142069	74.577
0.0142889	74.8548
0.0143714	75.1336
0.0144544	75.4135
0.0145378	75.6944
0.0146218	75.9764
0.0147062	76.2596
0.0147911	76.5438
0.0148765	76.8292
0.0149624	77.1158
0.0150487	77.4035
0.0151356	77.6925
0.015223	77.9827
0.0153109	78.2741
0.0153993	78.5666
0.0154882	78.8604
0.0155776	79.1554
0.0156675	79.4515
0.015758	79.7489
0.0158489	80.0474
0.0159404	80.347
0.0160325	80.6479
0.016125	80.9499
0.0162181	81.253
0.0163117	81.5573
0.0164059	81.8627
0.0165006	82.1692
0.0165959	82.4769
0.0166917	82.7856
0.016788	83.0954
0.016885	83.4064
0.0169824	83.7183
0.0170805	84.0314
0.0171791	84.3455
0.0172783	84.6607
0.017378	84.977
0.0174783	85.2944
0.0175792	85.6128
0.0176807	85.9324
0.0177828	86.253
0.0178855	86.5747
0.0179887	86.8975
0.0180926	87.2213
0.018197	87.5463
0.0183021	87.8724
0.0184077	88.1996
0.018514	88.5279
0.0186209	88.8573
0.0187284	89.1879
0.0188365	89.5195
0.0189452	89.8523
0.0190546	90.1862
0.0191646	90.5213
0.0192752	90.8575
0.0193865	91.1949
0.0194984	91.5334
0.019611	91.8732
0.0197242	92.2141
0.0198381	92.5563
0.0199526	92.8997
0.0200678	93.2443
0.0201837	93.5901
0.0203002	93.9372
0.0204174	94.2856
0.0205353	94.6353
0.0206538	94.9863
0.020773	95.3386
0.020893	95.6922
0.0210136	96.0472
0.0211349	96.4035
0.0212569	96.7611
0.0213796	97.12
0.021503	97.4802
0.0216272	97.8418
0.021752	98.2046
0.0218776	98.5688
0.0220039	98.9342
0.0221309	99.301
0.0222587	99.669
0.0223872	100.038
0.0225165	100.409
0.0226464	100.781
0.0227772	101.154
0.0229087	101.529
0.0230409	101.904
0.0231739	102.281
0.0233077	102.66
0.0234423	103.039
0.0235776	103.42
0.0237137	103.803
0.0238506	104.186
0.0239883	104.571
0.0241268	104.957
0.0242661	105.345
0.0244062	105.734
0.0245471	106.124
0.0246888	106.516
0.0248313	106.909
0.0249747	107.303
0.0251189	107.699
0.0252639	108.096
0.0254097	108.494
0.0255564	108.894
0.025704	109.296
0.0258523	109.698
0.0260016	110.102
0.0261517	110.508
0.0263027	110.915
0.0264545	111.323
0.0266073	111.733
0.0267609	112.144
0.0269153	112.556
0.0270707	112.97
0.027227	113.386
0.0273842	113.803
0.0275423	114.221
0.0277013	114.641
0.0278612	115.062
0.0280221	115.485
0.0281838	115.909
0.0283465	116.335
0.0285102	116.762
0.0286748	117.19
0.0288403	117.62
0.0290068	118.052
0.0291743	118.484
0.0293427	118.919
0.0295121	119.355
0.0296825	119.792
0.0298538	120.231
0.0300262	120.671
0.0301995	121.112
0.0303739	121.555
0.0305492	122
0.0307256	122.446
0.030903	122.894
0.0310814	123.343
0.0312608	123.793
0.0314413	124.245
0.0316228	124.698
0.0318053	125.153
0.031989	125.609
0.0321736	126.067
0.0323594	126.526
0.0325462	126.986
0.0327341	127.448
0.032923	127.912
0.0331131	128.376
0.0333043	128.843
0.0334965	129.31
0.0336899	129.779
0.0338844	130.25
0.03408	130.722
0.0342768	131.195
0.0344747	131.67
0.0346737	132.147
0.0348739	132.624
0.0350752	133.104
0.0352777	133.584
0.0354813	134.067
0.0356862	134.55
0.0358922	135.036
0.0360994	135.523
0.0363078	136.011
0.0365174	136.501
0.0367282	136.992
0.0369403	137.485
0.0371535	137.98
0.037368	138.476
0.0375837	138.974
0.0378007	139.474
0.0380189	139.975
0.0382384	140.478
0.0384592	140.983
0.0386812	141.489
0.0389045	141.996
0.0391291	142.506
0.039355	143.016
0.0395822	143.529
0.0398107	144.042
0.0400405	144.558
0.0402717	145.074
0.0405042	145.592
0.040738	146.112
0.0409732	146.633
0.0412098	147.155
0.0414477	147.679
0.0416869	148.203
0.0419276	148.729
0.0421697	149.257
0.0424131	149.786
0.042658	150.316
0.0429042	150.848
0.0431519	151.381
0.043401	151.915
0.0436516	152.451
0.0439036	152.989
0.044157	153.528
0.044412	154.069
0.0446684	154.612
0.0449262	155.156
0.0451856	155.702
0.0454465	156.25
0.0457088	156.8
0.0459727	157.351
0.0462381	157.904
0.046505	158.458
0.0467735	159.015
0.0470435	159.572
0.0473151	160.132
0.0475883	160.692
0.047863	161.254
0.0481393	161.817
0.0484172	162.382
0.0486968	162.947
0.0489779	163.514
0.0492606	164.082
0.049545	164.651
0.049831	165.221
0.0501187	165.792
0.0504081	166.365
0.0506991	166.938
0.0509918	167.514
0.0512861	168.09
0.0515822	168.668
0.05188	169.248
0.0521795	169.83
0.0524807	170.413
0.0527837	170.998
0.0530884	171.585
0.0533949	172.174
0.0537032	172.765
0.0540132	173.357
0.054325	173.95
0.0546387	174.545
0.0549541	175.142
0.0552713	175.739
0.0555904	176.338
0.0559114	176.938
0.0562341	177.538
0.0565588	178.139
0.0568853	178.741
0.0572137	179.344
0.057544	179.947
0.0578762	180.552
0.0582103	181.157
0.0585464	181.763
0.0588844	182.371
0.0592243	182.98
0.0595662	183.59
0.0599101	184.202
0.060256	184.815
0.0606038	185.431
0.0609537	186.047
0.0613056	186.666
0.0616595	187.286
0.0620155	187.907
0.0623735	188.529
0.0627336	189.153
0.0630957	189.777
0.06346	190.403
0.0638263	191.029
0.0641948	191.656
0.0645654	192.283
0.0649382	192.912
0.0653131	193.54
0.0656901	194.17
0.0660693	194.801
0.0664508	195.433
0.0668344	196.066
0.0672202	196.7
0.0676083	197.336
0.0679986	197.973
0.0683912	198.612
0.068786	199.252
0.0691831	199.893
0.0695825	200.536
0.0699842	201.179
0.0703882	201.823
0.0707946	202.468
0.0712033	203.113
0.0716143	203.758
0.0720278	204.404
0.0724436	205.049
0.0728618	205.694
0.0732825	206.34
0.0737055	206.986
0.074131	207.632
0.074559	208.278
0.0749894	208.924
0.0754223	209.571
0.0758578	210.219
0.0762957	210.867
0.0767361	211.516
0.0771792	212.165
0.0776247	212.814
0.0780728	213.464
0.0785236	214.114
0.0789769	214.765
0.0794328	215.416
0.0798914	216.067
0.0803526	216.719
0.0808165	217.371
0.0812831	218.023
0.0817523	218.676
0.0822243	219.329
0.082699	219.982
0.0831764	220.636
0.0836566	221.29
0.0841395	221.945
0.0846253	222.599
0.0851138	223.254
0.0856052	223.91
0.0860994	224.565
0.0865964	225.221
0.0870964	225.878
0.0875992	226.534
0.0881049	227.191
0.0886135	227.849
0.0891251	228.506
0.0896396	229.164
0.0901571	229.823
0.0906776	230.481
0.0912011	231.14
0.0917276	231.8
0.0922571	232.46
0.0927897	233.12
0.0933254	233.78
0.0938642	234.441
0.0944061	235.101
0.0949511	235.759
0.0954993	236.418
0.0960506	237.077
0.0966051	237.736
0.0971628	238.395
0.0977237	239.055
0.0982879	239.714
0.0988553	240.374
0.099426	241.033
0.1	241.692
0.100577	242.352
0.101158	243.011
0.101742	243.669
0.102329	244.328
0.10292	244.986
0.103514	245.643
0.104112	246.3
0.104713	246.956
0.105317	247.612
0.105925	248.267
0.106537	248.921
0.107152	249.574
0.107771	250.226
0.108393	250.877
0.109018	251.527
0.109648	252.176
0.110281	252.823
0.110917	253.47
0.111558	254.114
0.112202	254.757
0.11285	255.398
0.113501	256.039
0.114156	256.678
0.114815	257.315
0.115478	257.95
0.116145	258.584
0.116815	259.216
0.11749	259.846
0.118168	260.474
0.11885	261.101
0.119536	261.725
0.120226	262.348
0.120921	262.969
0.121619	263.589
0.122321	264.206
0.123027	264.822
0.123737	265.436
0.124451	266.048
0.12517	266.659
0.125893	267.268
0.126619	267.875
0.12735	268.481
0.128086	269.085
0.128825	269.688
0.129569	270.289
0.130317	270.888
0.131069	271.486
0.131826	272.082
0.132587	272.677
0.133352	273.271
0.134122	273.863
0.134896	274.454
0.135675	275.042
0.136458	275.629
0.137246	276.215
0.138038	276.798
0.138835	277.379
0.139637	277.958
0.140443	278.535
0.141254	279.11
0.142069	279.682
0.142889	280.252
0.143714	280.819
0.144544	281.384
0.145378	281.946
0.146218	282.505
0.147062	283.062
0.147911	283.615
0.148765	284.166
0.149624	284.713
0.150487	285.257
0.151356	285.797
0.15223	286.334
0.153109	286.868
0.153993	287.399
0.154882	287.927
0.155776	288.451
0.156675	288.972
0.15758	289.491
0.158489	290.007
0.159404	290.52
0.160325	291.03
0.16125	291.538
0.162181	292.044
0.163117	292.547
0.164059	293.048
0.165006	293.547
0.165959	294.044
0.166917	294.539
0.16788	295.033
0.16885	295.525
0.169824	296.016
0.170805	296.506
0.171791	296.994
0.172783	297.481
0.17378	297.966
0.174783	298.449
0.175792	298.931
0.176807	299.41
0.177828	299.887
0.178855	300.361
0.179887	300.833
0.180926	301.301
0.18197	301.767
0.183021	302.23
0.184077	302.689
0.18514	303.144
0.186209	303.596
0.187284	304.044
0.188365	304.487
0.189452	304.926
0.190546	305.361
0.191646	305.791
0.192752	306.217
0.193865	306.639
0.194984	307.057
0.19611	307.471
0.197242	307.881
0.198381	308.287
0.199526	308.689
0.200678	309.088
0.201837	309.483
0.203002	309.875
0.204174	310.263
0.205353	310.649
0.206538	311.031
0.20773	311.411
0.20893	311.788
0.210136	312.162
0.211349	312.533
0.212569	312.9
0.213796	313.265
0.21503	313.626
0.216272	313.984
0.21752	314.338
0.218776	314.689
0.220039	315.036
0.221309	315.378
0.222587	315.717
0.223872	316.052
0.225165	316.382
0.226464	316.708
0.227772	317.03
0.229087	317.347
0.230409	317.66
0.231739	317.969
0.233077	318.273
0.234423	318.572
0.235776	318.868
0.237137	319.159
0.238506	319.445
0.239883	319.728
0.241268	320.006
0.242661	320.28
0.244062	320.55
0.245471	320.817
0.246888	321.079
0.248313	321.337
0.249747	321.592
0.251189	321.842
0.252639	322.089
0.254097	322.333
0.255564	322.573
0.25704	322.81
0.258523	323.043
0.260016	323.273
0.261517	323.501
0.263027	323.725
0.264545	323.945
0.266073	324.161
0.267609	324.375
0.269153	324.586
0.270707	324.793
0.27227	324.998
0.273842	325.199
0.275423	325.397
0.277013	325.592
0.278612	325.783
0.280221	325.971
0.281838	326.156
0.283465	326.337
0.285102	326.514
0.286748	326.687
0.288403	326.857
0.290068	327.023
0.291743	327.185
0.293427	327.342
0.295121	327.496
0.296825	327.645
0.298538	327.791
0.300262	327.931
0.301995	328.068
0.303739	328.2
0.305492	328.328
0.307256	328.451
0.30903	328.57
0.310814	328.684
0.312608	328.794
0.314413	328.9
0.316228	329.001
0.318053	329.098
0.31989	329.19
0.321736	329.278
0.323594	329.362
0.325462	329.441
0.327341	329.516
0.32923	329.587
0.331131	329.654
0.333043	329.717
0.334965	329.776
0.336899	329.83
0.338844	329.881
0.3408	329.928
0.342768	329.971
0.344747	330.01
0.346737	330.045
0.348739	330.077
0.350752	330.104
0.352777	330.128
0.354813	330.147
0.356862	330.163
0.358922	330.175
0.360994	330.183
0.363078	330.187
0.365174	330.187
0.367282	330.184
0.369403	330.176
0.371535	330.165
0.37368	330.15
0.375837	330.131
0.378007	330.108
0.380189	330.082
0.382384	330.051
0.384592	330.017
0.386812	329.979
0.389045	329.937
0.391291	329.89
0.39355	329.84
0.395822	329.785
0.398107	329.726
0.400405	329.663
0.402717	329.596
0.405042	329.524
0.40738	329.447
0.409732	329.366
0.412098	329.28
0.414477	329.19
0.416869	329.095
0.419276	328.995
0.421697	328.891
0.424131	328.782
0.42658	328.669
0.429042	328.552
0.431519	328.432
0.43401	328.307
0.436516	328.179
0.439036	328.047
0.44157	327.912
0.44412	327.774
0.446684	327.633
0.449262	327.49
0.451856	327.344
0.454465	327.196
0.457088	327.045
0.459727	326.892
0.462381	326.736
0.46505	326.578
0.467735	326.417
0.470435	326.252
0.473151	326.085
0.475883	325.914
0.47863	325.739
0.481393	325.561
0.484172	325.379
0.486968	325.193
0.489779	325.002
0.492606	324.808
0.49545	324.609
0.49831	324.405
0.501187	324.198
0.504081	323.987
0.506991	323.772
0.509918	323.554
0.512861	323.332
0.515822	323.107
0.5188	322.879
0.521795	322.648
0.524807	322.415
0.527837	322.179
0.530884	321.94
0.533949	321.699
0.537032	321.456
0.540132	321.21
0.54325	320.962
0.546387	320.711
0.549541	320.457
0.552713	320.2
0.555904	319.941
0.559114	319.678
0.562341	319.412
0.565588	319.144
0.568853	318.871
0.572137	318.596
0.57544	318.317
0.578762	318.034
0.582103	317.748
0.585464	317.458
0.588844	317.164
0.592243	316.865
0.595662	316.562
0.599101	316.255
0.60256	315.944
0.606038	315.627
0.609537	315.306
0.613056	314.981
0.616595	314.653
0.620155	314.321
0.623735	313.987
0.627336	313.651
0.630957	313.313
0.6346	312.973
0.638263	312.633
0.641948	312.293
0.645654	311.952
0.649382	311.611
0.653131	311.268
0.656901	310.923
0.660693	310.575
0.664508	310.222
0.668344	309.865
0.672202	309.503
0.676083	309.134
0.679986	308.757
0.683912	308.374
0.68786	307.984
0.691831	307.588
0.695825	307.189
0.699842	306.787
0.703882	306.384
0.707946	305.98
0.712033	305.578
0.716143	305.178
0.720278	304.781
0.724436	304.388
0.728618	303.997
0.732825	303.607
0.737055	303.218
0.74131	302.829
0.74559	302.438
0.749894	302.045
0.754223	301.649
0.758578	301.249
0.762957	300.845
0.767361	300.437
0.771792	300.025
0.776247	299.609
0.780728	299.19
0.785236	298.766
0.789769	298.339
0.794328	297.909
0.798914	297.474
0.803526	297.037
0.808165	296.595
0.812831	296.15
0.817523	295.702
0.822243	295.25
0.82699	294.795
0.831764	294.336
0.836566	293.875
0.841395	293.41
0.846253	292.942
0.851138	292.471
0.856052	291.997
0.860994	291.52
0.865964	291.04
0.870964	290.558
0.875992	290.073
0.881049	289.586
0.886135	289.096
0.891251	288.603
0.896396	288.109
0.901571	287.612
0.906776	287.113
0.912011	286.612
0.917276	286.11
0.922571	285.605
0.927897	285.099
0.933254	284.592
0.938642	284.083
0.944061	283.573
0.949511	283.061
0.954993	282.548
0.960506	282.034
0.966051	281.518
0.971628	281.002
0.977237	280.484
0.982879	279.965
0.988553	279.445
0.99426	278.924
1	278.402
1.00577	277.879
1.01158	277.354
1.01742	276.829
1.02329	276.302
1.0292	275.774
1.03514	275.244
1.04112	274.714
1.04713	274.182
1.05317	273.649
1.05925	273.115
1.06537	272.58
1.07152	272.043
1.07771	271.505
1.08393	270.966
1.09018	270.425
1.09648	269.883
1.10281	269.34
1.10917	268.796
1.11558	268.25
1.12202	267.703
1.1285	267.154
1.13501	266.603
1.14156	266.051
1.14815	265.498
1.15478	264.943
1.16145	264.387
1.16815	263.83
1.1749	263.271
1.18168	262.712
1.1885	262.151
1.19536	261.588
1.20226	261.025
1.20921	260.461
1.21619	259.895
1.22321	259.329
1.23027	258.761
1.23737	258.193
1.24451	257.624
1.2517	257.054
1.25893	256.483
1.26619	255.911
1.2735	255.338
1.28086	254.765
1.28825	254.191
1.29569	253.617
1.30317	253.042
1.31069	252.466
1.31826	251.89
1.32587	251.314
1.33352	250.737
1.34122	250.16
1.34896	249.582
1.35675	249.004
1.36458	248.425
1.37246	247.846
1.38038	247.266
1.38835	246.686
1.39637	246.105
1.40443	245.524
1.41254	244.942
1.42069	244.36
1.42889	243.777
1.43714	243.193
1.44544	242.608
1.45378	242.023
1.46218	241.437
1.47062	240.85
1.47911	240.262
1.48765	239.674
1.49624	239.085
1.50487	238.494
1.51356	237.903
1.5223	237.311
1.53109	236.717
1.53993	236.123
1.54882	235.529
1.55776	234.933
1.56675	234.337
1.5758	233.74
1.58489	233.143
1.59404	232.546
1.60325	231.948
1.6125	231.349
1.62181	230.751
1.63117	230.152
1.64059	229.554
1.65006	228.955
1.65959	228.356
1.66917	227.758
1.6788	227.16
1.6885	226.562
1.69824	225.965
1.70805	225.369
1.71791	224.773
1.72783	224.177
1.7378	223.582
1.74783	222.987
1.75792	222.392
1.76807	221.798
1.77828	221.204
1.78855	220.61
1.79887	220.017
1.80926	219.423
1.8197	218.83
1.83021	218.236
1.84077	217.643
1.8514	217.049
1.86209	216.455
1.87284	215.86
1.88365	215.265
1.89452	214.67
1.90546	214.075
1.91646	213.478
1.92752	212.882
1.93865	212.285
1.94984	211.688
1.9611	211.09
1.97242	210.492
1.98381	209.893
1.99526	209.295
2.00678	208.696
2.01837	208.097
2.03002	207.497
2.04174	206.898
2.05353	206.298
2.06538	205.698
2.0773	205.097
2.0893	204.497
2.10136	203.896
2.11349	203.296
2.12569	202.695
2.13796	202.094
2.1503	201.493
2.16272	200.892
2.1752	200.291
2.18776	199.689
2.20039	199.088
2.21309	198.486
2.22587	197.885
2.23872	197.283
2.25165	196.681
2.26464	196.079
2.27772	195.477
2.29087	194.875
2.30409	194.272
2.31739	193.67
2.33077	193.067
2.34423	192.465
2.35776	191.862
2.37137	191.26
2.38506	190.657
2.39883	190.054
2.41268	189.452
2.42661	188.849
2.44062	188.246
2.45471	187.643
2.46888	187.04
2.48313	186.437
2.49747	185.834
2.51189	185.231
2.52639	184.627
2.54097	184.024
2.55564	183.421
2.5704	182.817
2.58523	182.214
2.60016	181.61
2.61517	181.006
2.63027	180.402
2.64545	179.799
2.66073	179.196
2.67609	178.592
2.69153	177.989
2.70707	177.385
2.7227	176.782
2.73842	176.178
2.75423	175.575
2.77013	174.971
2.78612	174.368
2.80221	173.765
2.81838	173.161
2.83465	172.558
2.85102	171.955
2.86748	171.352
2.88403	170.75
2.90068	170.147
2.91743	169.545
2.93427	168.943
2.95121	168.342
2.96825	167.74
2.98538	167.139
3.00262	166.539
3.01995	165.938
3.03739	165.338
3.05492	164.738
3.07256	164.139
3.0903	163.541
3.10814	162.943
3.12608	162.346
3.14413	161.75
3.16228	161.155
3.18053	160.561
3.1989	159.968
3.21736	159.376
3.23594	158.786
3.25462	158.197
3.27341	157.609
3.2923	157.023
3.31131	156.439
3.33043	155.856
3.34965	155.275
3.36899	154.697
3.38844	154.12
3.408	153.545
3.42768	152.973
3.44747	152.403
3.46737	151.834
3.48739	151.268
3.50752	150.704
3.52777	150.142
3.54813	149.582
3.56862	149.023
3.58922	148.467
3.60994	147.912
3.63078	147.359
3.65174	146.808
3.67282	146.259
3.69403	145.711
3.71535	145.164
3.7368	144.619
3.75837	144.076
3.78007	143.533
3.80189	142.992
3.82384	142.452
3.84592	141.914
3.86812	141.379
3.89045	140.843
3.91291	140.309
3.9355	139.776
3.95822	139.245
3.98107	138.715
4.00405	138.187
4.02717	137.66
4.05042	137.135
4.0738	136.612
4.09732	136.09
4.12098	135.571
4.14477	135.053
4.16869	134.537
4.19276	134.023
4.21697	133.51
4.24131	132.999
4.2658	132.491
4.29042	131.983
4.31519	131.478
4.3401	130.974
4.36516	130.472
4.39036	129.971
4.4157	129.472
4.4412	128.975
4.46684	128.479
4.49262	127.984
4.51856	127.491
4.54465	126.999
4.57088	126.508
4.59727	126.019
4.62381	125.531
4.6505	125.045
4.67735	124.56
4.70435	124.076
4.73151	123.594
4.75883	123.114
4.7863	122.635
4.81393	122.157
4.84172	121.681
4.86968	121.206
4.89779	120.734
4.92606	120.262
4.9545	119.793
4.9831	119.325
5.01187	118.858
5.04081	118.393
5.06991	117.93
5.09918	117.469
5.12861	117.009
5.15822	116.551
5.188	116.095
5.21795	115.64
5.24807	115.187
5.27837	114.736
5.30884	114.286
5.33949	113.838
5.37032	113.392
5.40132	112.947
5.4325	112.504
5.46387	112.063
5.49541	111.622
5.52713	111.184
5.55904	110.747
5.59114	110.311
5.62341	109.876
5.65588	109.443
5.68853	109.01
5.72137	108.579
5.7544	108.15
5.78762	107.721
5.82103	107.294
5.85464	106.868
5.88844	106.443
5.92243	106.019
5.95662	105.597
5.99101	105.18
6.0256	104.766
6.06038	104.352
6.09537	103.94
6.13056	103.53
6.16595	103.12
6.20155	102.713
6.23735	102.306
6.27336	101.901
6.30957	101.498
6.346	101.095
6.38263	100.695
6.41948	100.295
6.45654	99.8969
6.49382	99.5001
6.53131	99.1046
6.56901	98.7105
6.60693	98.3177
6.64508	97.9263
6.68344	97.5362
6.72202	97.1474
6.76083	96.7599
6.79986	96.3738
6.83912	95.989
6.8786	95.6054
6.91831	95.2232
6.95825	94.8423
6.99842	94.4627
7.03882	94.0844
7.07946	93.5264
7.12033	93.1541
7.16143	92.7831
7.20278	92.4133
7.24436	92.0448
7.28618	91.9329
7.32825	91.559
7.37055	91.1863
7.4131	90.815
7.4559	90.4449
7.49894	90.0761
7.54223	89.7086
7.58578	89.3423
7.62957	88.9773
7.67361	88.6136
7.71792	88.2511
7.76247	87.8898
7.80728	87.5298
7.85236	87.1711
7.89769	86.8136
7.94328	86.4573
7.98914	86.1023
8.03526	85.7485
8.08165	85.3959
8.12831	85.0445
8.17523	84.6944
8.22243	84.3455
8.2699	83.9978
8.31764	83.6513
8.36566	83.306
8.41395	82.9619
8.46253	82.5246
8.51138	82.1849
8.56052	81.8464
8.60994	81.5091
8.65964	81.1729
8.70964	80.8378
8.75992	80.7043
8.81049	80.3699
8.86135	80.0365
8.91251	79.7043
8.96396	79.3732
9.01571	79.0432
9.06776	78.7143
9.12011	78.3865
9.17276	78.0598
9.22571	77.7342
9.27897	77.4096
9.33254	77.0861
9.38642	76.7638
9.44061	76.4409
9.49511	76.1206
9.54993	75.8013
9.60506	75.4831
9.66051	75.1659
9.71628	74.8498
9.77237	74.5348
9.82879	74.2209
9.88553	73.8596
9.9426	73.5491
10	73.2396
10.0577	72.9312
10.1158	72.6238
10.1742	72.3175
10.2329	72.0833
10.292	71.7775
10.3514	71.4729
10.4112	71.1692
10.4713	70.8666
10.5317	70.5651
10.5925	70.2646
10.6537	69.9652
10.7152	69.6668
10.7771	69.3694
10.8393	69.0731
10.9018	68.7779
10.9648	68.5974
11.0281	68.3027
11.0917	68.0091
11.1558	67.7165
11.2202	67.425
11.285	67.1345
11.3501	66.8196
11.4156	66.5325
11.4815	66.2465
11.5478	65.9616
11.6145	65.6777
11.6815	65.3948
11.749	65.113
11.8168	64.8322
11.885	64.5525
11.9536	64.2738
12.0226	63.9962
12.0921	63.7196
12.1619	63.444
12.2321	63.1695
12.3027	62.896
12.3737	62.6236
12.4451	62.4693
12.517	62.1972
12.5893	61.9261
12.6619	61.6561
12.735	61.3871
12.8086	61.1192
12.8825	60.8523
12.9569	60.5865
13.0317	60.3217
13.1069	60.0579
13.1826	59.7952
13.2587	59.5335
13.3352	59.2729
13.4122	59.0134
13.4896	58.7548
13.5675	58.4974
13.6458	58.241
13.7246	57.9856
13.8038	57.7313
13.8835	57.478
13.9637	57.2258
14.0443	56.9746
14.1254	56.7245
14.2069	56.4622
14.2889	56.215
14.3714	55.9688
14.4544	55.7236
14.5378	55.4795
14.6218	55.2364
14.7062	55.1915
14.7911	54.9478
14.8765	54.7052
14.9624	54.4636
15.0487	54.223
15.1356	53.9834
15.223	53.7449
15.3109	53.5074
15.3993	53.271
15.4882	53.0355
15.5776	52.8011
15.6675	52.5677
15.758	52.3353
15.8489	52.1039
15.9404	51.8736
16.0325	51.6442
16.125	51.4158
16.2181	51.1885
16.3117	50.9621
16.4059	50.7367
16.5006	50.5124
16.5959	50.289
16.6917	50.0665
16.788	49.8451
16.885	49.6246
16.9824	49.4051
17.0805	49.1921
17.1791	48.9749
17.2783	48.7586
17.378	48.5433
17.4783	48.3289
17.5792	48.1155
17.6807	47.903
17.7828	47.6915
17.8855	47.4808
17.9887	47.2712
18.0926	47.0624
18.197	46.8545
18.3021	46.6476
18.4077	46.4416
18.514	46.2365
18.6209	46.0323
18.7284	45.829
18.8365	45.6267
18.9452	45.4252
19.0546	45.2246
19.1646	45.0248
19.2752	44.826
19.3865	44.6281
19.4984	44.431
19.611	44.2348
19.7242	44.0394
19.8381	43.845
19.9526	43.6614
20.0678	43.4686
20.1837	43.2767
20.3002	43.0856
20.4174	42.8954
20.5353	42.706
20.6538	42.5174
20.773	42.3297
20.893	42.1428
21.0136	41.9568
21.1349	41.7716
21.2569	41.5871
21.3796	41.4132
21.503	41.2305
21.6272	41.0487
21.752	40.8677
21.8776	40.6874
22.0039	40.508
22.1309	40.4213
22.2587	40.2415
22.3872	40.0624
22.5165	39.8842
22.6464	39.7067
22.7772	39.53
22.9087	39.3541
23.0409	39.179
23.1739	39.0046
23.3077	38.8311
23.4423	38.6583
23.5776	38.4863
23.7137	38.315
23.8506	38.1445
23.9883	37.9747
24.1268	37.8057
24.2661	37.6512
24.4062	37.4836
24.5471	37.3168
24.6888	37.1506
24.8313	36.9852
24.9747	36.8206
25.1189	36.6566
25.2639	36.4934
25.4097	36.3309
25.5564	36.1691
25.704	36.008
25.8523	35.8476
26.0016	35.6879
26.1517	35.5289
26.3027	35.3706
26.4545	35.2131
26.6073	35.0561
26.7609	34.8999
26.9153	34.7444
27.0707	34.5895
27.227	34.4354
27.3842	34.2818
27.5423	34.129
27.7013	33.9768
27.8612	33.8253
28.0221	33.6745
28.1838	33.5243
28.3465	33.3748
28.5102	33.2495
28.6748	33.1012
28.8403	32.9536
29.0068	32.8067
29.1743	32.6604
29.3427	32.5147
29.5121	32.3697
29.6825	32.2253
29.8538	32.0815
30.0262	31.9384
30.1995	31.7959
30.3739	31.654
30.5492	31.5127
30.7256	31.3721
30.903	31.2321
31.0814	31.0927
31.2608	30.9538
31.4413	30.8157
31.6228	30.6781
31.8053	30.5411
31.989	30.4047
32.1736	30.2689
32.3594	30.1337
32.5462	29.9991
32.7341	29.8651
32.923	29.7317
33.1131	29.5988
33.3043	29.4666
33.4965	29.3349
33.6899	29.2038
33.8844	29.0733
34.08	28.9433
34.2768	28.8139
34.4747	28.6851
34.6737	28.5569
34.8739	28.4292
35.0752	28.3021
35.2777	28.1755
35.4813	28.0495
35.6862	27.9241
35.8922	27.7992
36.0994	27.6748
36.3078	27.551
36.5174	27.4278
36.7282	27.3051
36.9403	27.1829
37.1535	26.9032
37.368	26.78
37.5837	26.6574
37.8007	26.5353
38.0189	26.4137
38.2384	26.2927
38.4592	26.1722
38.6812	26.0522
38.9045	25.9328
39.1291	25.814
39.355	25.6956
39.5822	25.5778
39.8107	25.4605
40.0405	25.3437
40.2717	25.2274
40.5042	25.1117
40.738	24.9964
40.9732	24.8817
41.2098	24.7675
41.4477	24.6538
41.6869	24.5406
41.9276	24.4279
42.1697	24.3158
42.4131	24.2041
42.658	24.0929
42.9042	23.9822
43.1519	23.9064
43.401	23.7963
43.6516	23.6867
43.9036	23.5776
44.157	23.469
44.412	23.3608
44.6684	23.2532
44.9262	23.146
45.1856	23.0393
45.4465	22.9331
45.7088	22.8273
45.9727	22.7221
46.2381	22.6173
46.505	22.513
46.7735	22.4091
47.0435	22.3057
47.3151	22.2028
47.5883	22.1003
47.863	21.9983
48.1393	21.8968
48.4172	21.7957
48.6968	21.695
48.9779	21.5948
49.2606	21.4951
49.545	21.3958
49.831	21.297
50.1187	21.1986
50.4081	21.1006
50.6991	21.0031
50.9918	20.9061
51.2861	20.8094
51.5822	20.7132
51.88	20.6175
52.1795	20.5221
52.4807	20.4329
52.7837	20.3445
53.0884	20.2564
53.3949	20.1687
53.7032	20.0813
54.0132	19.9942
54.325	19.9075
54.6387	19.8211
54.9541	19.735
55.2713	19.6492
55.5904	19.5638
55.9114	19.4787
56.2341	19.3939
56.5588	19.3094
56.8853	19.2253
57.2137	19.1415
57.544	19.058
57.8762	18.9749
58.2103	18.892
58.5464	18.8095
58.8844	18.7273
59.2243	18.6455
59.5662	18.5639
59.9101	18.4827
60.256	18.4018
60.6038	18.3212
60.9537	18.2409
61.3056	18.161
61.6595	18.0814
62.0155	18.0021
62.3735	17.9231
62.7336	17.8444
63.0957	17.766
63.46	17.688
63.8263	17.6103
64.1948	17.5328
64.5654	17.4557
64.9382	17.379
65.3131	17.3025
65.6901	17.2263
66.0693	17.1505
66.4508	17.0749
66.8344	16.9997
67.2202	16.9248
67.6083	16.8502
67.9986	16.7758
68.3912	16.7018
68.786	16.6281
69.1831	16.5547
69.5825	16.4817
69.9842	16.4089
70.3882	16.3364
70.7946	16.2642
71.2033	16.1923
71.6143	16.1208
72.0278	16.0495
72.4436	15.9785
72.8618	15.9078
73.2825	15.8578
73.7055	15.7875
74.131	15.7174
74.559	15.6477
74.9894	15.5782
75.4223	15.509
75.8578	15.4402
76.2957	15.3716
76.7361	15.3033
77.1792	15.2353
77.6247	15.1676
78.0728	15.1002
78.5236	15.033
78.9769	14.9662
79.4328	14.8996
79.8914	14.8334
80.3526	14.7674
80.8165	14.7017
81.2831	14.6363
81.7523	14.5711
82.2243	14.5063
82.699	14.4417
83.1764	14.3774
83.6566	14.3134
84.1395	14.2496
84.6253	14.1862
85.1138	14.123
85.6052	14.0601
86.0994	13.9974
86.5964	13.9351
87.0964	13.873
87.5992	13.8111
88.1049	13.7496
88.6135	13.6883
89.1251	13.6273
89.6396	13.5665
90.1571	13.5061
90.6776	13.4459
91.2011	13.3859
91.7276	13.3262
92.2571	13.2668
92.7897	13.2076
93.3254	13.1487
93.8642	13.0901
94.4061	13.0317
94.9511	12.9736
95.4993	12.9157
96.0506	12.8581
96.6051	12.8008
97.1628	12.7437
97.7237	12.6868
98.2879	12.6303
98.8553	12.5739
99.426	12.5178
100	12.462
100.577	12.4064
101.158	12.3511
101.742	12.296
102.329	12.2411
102.92	12.1865
103.514	12.1322
104.112	12.0866
104.713	12.0326
105.317	11.9789
105.925	11.9254
106.537	11.8721
107.152	11.8191
107.771	11.7663
108.393	11.7138
109.018	11.6615
109.648	11.6094
110.281	11.5576
110.917	11.506
111.558	11.4546
112.202	11.4035
112.85	11.3526
113.501	11.3019
114.156	11.2515
114.815	11.2013
115.478	11.1513
116.145	11.1015
116.815	11.052
117.49	11.0027
118.168	10.9537
118.85	10.9048
119.536	10.8562
120.226	10.8078
120.921	10.7596
121.619	10.7116
122.321	10.6639
123.027	10.6164
123.737	10.569
124.451	10.522
125.17	10.4751
125.893	10.4284
126.619	10.382
127.35	10.3358
128.086	10.2898
128.825	10.244
129.569	10.1984
130.317	10.153
131.069	10.1078
131.826	10.0629
132.587	10.0181
133.352	9.97356
134.122	9.92922
134.896	9.88508
135.675	9.84115
136.458	9.79742
137.246	9.7539
138.038	9.71057
138.835	9.66745
139.637	9.62453
140.443	9.58181
141.254	9.53929
142.069	9.49696
142.889	9.45483
143.714	9.4129
144.544	9.37117
145.378	9.32963
146.218	9.28828
147.062	9.24712
147.911	9.20616
148.765	9.16539
149.624	9.12481
150.487	9.08442
151.356	9.04422
152.23	9.00808
153.109	8.96826
153.993	8.92863
154.882	8.88918
155.776	8.84992
156.675	8.81084
157.58	8.77195
158.489	8.73323
159.404	8.6947
160.325	8.65635
161.25	8.61818
162.181	8.58018
163.117	8.54237
164.059	8.50473
165.006	8.46727
165.959	8.42999
166.917	8.39288
167.88	8.35594
168.85	8.31918
169.824	8.28259
170.805	8.24618
171.791	8.20993
172.783	8.17386
173.78	8.13796
174.783	8.10222
175.792	8.06666
176.807	8.03126
177.828	7.99603
178.855	7.96097
179.887	7.92607
180.926	7.89134
181.97	7.85677
183.021	7.82237
184.077	7.78813
185.14	7.75405
186.209	7.72013
187.284	7.68638
188.365	7.65278
189.452	7.61935
190.546	7.58607
191.646	7.55295
192.752	7.51999
193.865	7.48719
194.984	7.45454
196.11	7.42205
197.242	7.38971
198.381	7.35753
199.526	7.3255
200.678	7.29362
201.837	7.2619
203.002	7.23033
204.174	7.1989
205.353	7.16763
206.538	7.13651
207.73	7.10554
208.93	7.07472
210.136	7.04404
211.349	7.01351
212.569	6.98313
213.796	6.95289
215.03	6.9228
216.272	6.89285
217.52	6.86305
218.776	6.83339
220.039	6.80387
221.309	6.77449
222.587	6.74526
223.872	6.71617
225.165	6.68722
226.464	6.6584
227.772	6.62973
229.087	6.60119
230.409	6.57279
231.739	6.54453
233.077	6.51641
234.423	6.48842
235.776	6.46057
237.137	6.43285
238.506	6.40527
239.883	6.37782
241.268	6.3505
242.661	6.32332
244.062	6.29626
245.471	6.26934
246.888	6.24255
248.313	6.21589
249.747	6.18936
251.189	6.16296
252.639	6.13669
254.097	6.11054
255.564	6.08452
257.04	6.05863
258.523	6.03287
260.016	6.00723
261.517	5.98171
263.027	5.95632
264.545	5.93106
266.073	5.90592
267.609	5.8809
269.153	5.856
270.707	5.83122
272.27	5.80657
273.842	5.78204
275.423	5.75762
277.013	5.73333
278.612	5.70915
280.221	5.6851
281.838	5.66116
283.465	5.63734
285.102	5.61364
286.748	5.59005
288.403	5.56658
290.068	5.54323
291.743	5.51999
293.427	5.49686
295.121	5.47385
296.825	5.45095
298.538	5.42817
300.262	5.40549
301.995	5.38293
303.739	5.36048
305.492	5.33814
307.256	5.31592
309.03	5.2938
310.814	5.27179
312.608	5.24989
314.413	5.2281
316.228	5.20642
318.053	5.18484
319.89	5.16337
321.736	5.14201
323.594	5.12075
325.462	5.0996
327.341	5.07856
329.23	5.05762
331.131	5.03678
333.043	5.01605
334.965	4.99542
336.899	4.9749
338.844	4.95447
340.8	4.93415
342.768	4.91393
344.747	4.89381
346.737	4.87379
348.739	4.85387
350.752	4.83406
352.777	4.81434
354.813	4.79471
356.862	4.77519
358.922	4.75577
360.994	4.73644
363.078	4.71721
365.174	4.69808
367.282	4.67904
369.403	4.6601
371.535	4.64125
373.68	4.6225
375.837	4.60384
378.007	4.58528
380.189	4.56681
382.384	4.54843
384.592	4.53014
386.812	4.51195
389.045	4.49385
391.291	4.47584
393.55	4.45793
395.822	4.4401
398.107	4.42236
400.405	4.40472
402.717	4.38716
405.042	4.36969
407.38	4.35231
409.732	4.33502
412.098	4.31782
414.477	4.3007
416.869	4.28367
419.276	4.26673
421.697	4.24987
424.131	4.2331
426.58	4.21641
429.042	4.19981
431.519	4.1833
434.01	4.16687
436.516	4.15052
439.036	4.13426
441.57	4.11808
444.12	4.10198
446.684	4.08596
449.262	4.07003
451.856	4.05418
454.465	4.03841
457.088	4.02272
459.727	4.00711
462.381	3.99158
465.05	3.97613
467.735	3.96076
470.435	3.94547
473.151	3.93026
475.883	3.91513
478.63	3.90007
481.393	3.88509
484.172	3.87019
486.968	3.85537
489.779	3.84062
492.606	3.82595
495.45	3.81136
498.31	3.79684
501.187	3.7824
504.081	3.76803
506.991	3.75373
509.918	3.73951
512.861	3.72537
515.822	3.71129
518.8	3.69729
521.795	3.68337
524.807	3.66951
527.837	3.65573
530.884	3.64202
533.949	3.62838
537.032	3.61482
540.132	3.60132
543.25	3.58789
546.387	3.57454
549.541	3.56125
552.713	3.54804
555.904	3.53489
559.114	3.52181
562.341	3.5088
565.588	3.49586
568.853	3.48299
572.137	3.47018
575.44	3.45744
578.762	3.44477
582.103	3.43217
585.464	3.41963
588.844	3.40716
592.243	3.39476
595.662	3.38242
599.101	3.37014
602.56	3.35793
606.038	3.34579
609.537	3.33371
613.056	3.32169
616.595	3.30974
620.155	3.29785
623.735	3.28602
627.336	3.27426
630.957	3.26256
634.6	3.25092
638.263	3.23935
641.948	3.22783
645.654	3.21638
649.382	3.20499
653.131	3.19366
656.901	3.18239
660.693	3.17118
664.508	3.16003
668.344	3.14894
672.202	3.13791
676.083	3.12694
679.986	3.11603
683.912	3.10518
687.86	3.09438
691.831	3.08365
695.825	3.07297
699.842	3.06235
703.882	3.05179
707.946	3.04128
712.033	3.03083
716.143	3.02044
720.278	3.0101
724.436	2.99982
728.618	2.9896
732.825	2.97943
737.055	2.96932
741.31	2.95926
745.59	2.94926
749.894	2.93931
754.223	2.92942
758.578	2.91958
762.957	2.90979
767.361	2.90006
771.792	2.89038
776.247	2.88075
780.728	2.87118
785.236	2.86166
789.769	2.85219
794.328	2.84278
798.914	2.83341
803.526	2.8241
808.165	2.81484
812.831	2.80563
817.523	2.79647
822.243	2.78736
826.99	2.77831
831.764	2.7693
836.566	2.76034
841.395	2.75144
846.253	2.74258
851.138	2.73377
856.052	2.72501
860.994	2.7163
865.964	2.70764
870.964	2.69903
875.992	2.69047
881.049	2.68195
886.135	2.67348
891.251	2.66506
896.396	2.65669
901.571	2.64836
906.776	2.64008
912.011	2.63185
917.276	2.62366
922.571	2.61553
927.897	2.60743
933.254	2.59938
938.642	2.59138
944.061	2.58343
949.511	2.57552
954.993	2.56765
960.506	2.55983
966.051	2.55205
971.628	2.54432
977.237	2.53663
982.879	2.52899
988.553	2.52139
994.26	2.51383
1000	2.50632
1005.77	2.49885
1011.58	2.49143
1017.42	2.48404
1023.29	2.4767
1029.2	2.46941
1035.14	2.46215
1041.12	2.45494
1047.13	2.44777
1053.17	2.44064
1059.25	2.43355
1065.37	2.4265
1071.52	2.41949
1077.71	2.41253
1083.93	2.40561
1090.18	2.39872
1096.48	2.39188
1102.81	2.38508
1109.17	2.37831
1115.58	2.37159
1122.02	2.36491
1128.5	2.35826
1135.01	2.35166
1141.56	2.34509
1148.15	2.33857
1154.78	2.33208
1161.45	2.32563
1168.15	2.31922
1174.9	2.31285
1181.68	2.30652
1188.5	2.30022
1195.36	2.29396
1202.26	2.28774
1209.21	2.28156
1216.19	2.27541
1223.21	2.2693
1230.27	2.26323
1237.37	2.2572
1244.51	2.2512
1251.7	2.24524
1258.93	2.23931
1266.19	2.23342
1273.5	2.22757
1280.86	2.22175
1288.25	2.21597
1295.69	2.21022
1303.17	2.20451
1310.69	2.19883
1318.26	2.19319
1325.87	2.18758
1333.52	2.18201
1341.22	2.17647
1348.96	2.17097
1356.75	2.1655
1364.58	2.16007
1372.46	2.15466
1380.38	2.1493
1388.35	2.14396
1396.37	2.13866
1404.43	2.13339
1412.54	2.12816
1420.69	2.12296
1428.89	2.11779
1437.14	2.11265
1445.44	2.10755
1453.78	2.10248
1462.18	2.09744
1470.62	2.09243
1479.11	2.08746
1487.65	2.08252
1496.24	2.07761
1504.87	2.07273
1513.56	2.06788
1522.3	2.06306
1531.09	2.05827
1539.93	2.05352
1548.82	2.04879
1557.76	2.0441
1566.75	2.03944
1575.8	2.0348
1584.89	2.0302
1594.04	2.02563
1603.25	2.02109
1612.5	2.01657
1621.81	2.01209
1631.17	2.00764
1640.59	2.00321
1650.06	1.99882
1659.59	1.99445
1669.17	1.99012
1678.8	1.98581
1688.5	1.98153
1698.24	1.97728
1708.05	1.97306
1717.91	1.96886
1727.83	1.9647
1737.8	1.96056
1747.83	1.95645
1757.92	1.95237
1768.07	1.94832
1778.28	1.94429
1788.55	1.94029
1798.87	1.93632
1809.26	1.93238
1819.7	1.92846
1830.21	1.92457
1840.77	1.92071
1851.4	1.91687
1862.09	1.91306
1872.84	1.90928
1883.65	1.90552
1894.52	1.90179
1905.46	1.89809
1916.46	1.89441
1927.52	1.89076
1938.65	1.88713
1949.84	1.88353
1961.1	1.87995
1972.42	1.8764
1983.81	1.87288
1995.26	1.86938
2006.78	1.8659
2018.37	1.86245
2030.02	1.85903
2041.74	1.85563
2053.53	1.85225
2065.38	1.8489
2077.3	1.84558
2089.3	1.84227
2101.36	1.839
2113.49	1.83574
2125.69	1.83251
2137.96	1.82931
2150.3	1.82612
2162.72	1.82296
2175.2	1.81983
2187.76	1.81672
2200.39	1.81363
2213.09	1.81056
2225.87	1.80752
2238.72	1.8045
2251.65	1.8015
2264.64	1.79853
2277.72	1.79558
2290.87	1.79265
2304.09	1.78974
2317.39	1.78686
2330.77	1.784
2344.23	1.78116
2357.76	1.77834
2371.37	1.77554
2385.06	1.77277
2398.83	1.77001
2412.68	1.76728
2426.61	1.76457
2440.62	1.76189
2454.71	1.75922
2468.88	1.75661
2483.13	1.75407
2497.47	1.75154
2511.89	1.74904
2526.39	1.74655
2540.97	1.74409
2555.64	1.74164
2570.4	1.73922
2585.23	1.73682
2600.16	1.73443
2615.17	1.73207
2630.27	1.72972
2645.45	1.7274
2660.73	1.72509
2676.09	1.7228
2691.53	1.72054
2707.07	1.71829
2722.7	1.71606
2738.42	1.71385
2754.23	1.71166
2770.13	1.70949
2786.12	1.70734
2802.21	1.7052
2818.38	1.70309
2834.65	1.70099
2851.02	1.69892
2867.48	1.69686
2884.03	1.69482
2900.68	1.69279
2917.43	1.69079
2934.27	1.6888
2951.21	1.68683
2968.25	1.68488
2985.38	1.68295
3002.62	1.68104
3019.95	1.67914
3037.39	1.67726
3054.92	1.6754
3072.56	1.67355
3090.3	1.67173
3108.14	1.66992
3126.08	1.66812
3144.13	1.66635
3162.28	1.66459
3180.53	1.66285
3198.9	1.66113
3217.36	1.65942
3235.94	1.65773
3254.62	1.65605
3273.41	1.6544
3292.3	1.65276
3311.31	1.65113
3330.43	1.64952
3349.65	1.64793
3368.99	1.64636
3388.44	1.6448
3408	1.64326
3427.68	1.64173
3447.47	1.64022
3467.37	1.63872
3487.39	1.63724
3507.52	1.63578
3527.77	1.63433
3548.13	1.6329
3568.62	1.63148
3589.22	1.63008
3609.94	1.62869
3630.78	1.62732
3651.74	1.62597
3672.82	1.62463
3694.03	1.6233
3715.35	1.62199
3736.8	1.6207
3758.37	1.61942
3780.07	1.61815
3801.89	1.6169
3823.84	1.61566
3845.92	1.61444
3868.12	1.61323
3890.45	1.61204
3912.91	1.61086
3935.5	1.6097
3958.22	1.60855
3981.07	1.60741
4004.05	1.60629
4027.17	1.60518
4050.42	1.60409
4073.8	1.60301
4097.32	1.60194
4120.98	1.60089
4144.77	1.59985
4168.69	1.59883
4192.76	1.59782
4216.97	1.59682
4241.31	1.59583
4265.8	1.59486
4290.42	1.59391
4315.19	1.59296
4340.1	1.59203
4365.16	1.59111
4390.36	1.59021
4415.7	1.58931
4441.2	1.58843
4466.84	1.58757
4492.62	1.58671
4518.56	1.58587
4544.65	1.58504
4570.88	1.58423
4597.27	1.58343
4623.81	1.58264
4650.5	1.58186
4677.35	1.58109
4704.35	1.58034
4731.51	1.5796
4758.83	1.57887
4786.3	1.57815
4813.93	1.57744
4841.72	1.57675
4869.68	1.57607
4897.79	1.5754
4926.06	1.57474
4954.5	1.5741
4983.1	1.57346
5011.87	1.57284
5040.81	1.57223
5069.91	1.57163
5099.18	1.57104
5128.61	1.57046
5158.22	1.5699
5188	1.56934
5217.95	1.5688
5248.07	1.56827
5278.37	1.56774
5308.84	1.56723
5339.49	1.56674
5370.32	1.56625
5401.32	1.56577
5432.5	1.5653
5463.87	1.56485
5495.41	1.5644
5527.13	1.56397
5559.04	1.56354
5591.14	1.56313
5623.41	1.56273
5655.88	1.56233
5688.53	1.56195
5721.37	1.56158
5754.4	1.56122
5787.62	1.56087
5821.03	1.56052
5854.64	1.56019
5888.44	1.55987
5922.43	1.55956
5956.62	1.55926
5991.01	1.55896
6025.6	1.55868
6060.38	1.55841
6095.37	1.55815
6130.56	1.55789
6165.95	1.55765
6201.55	1.55741
6237.35	1.55719
6273.36	1.55697
6309.57	1.55677
6346	1.55657
6382.63	1.55638
6419.48	1.55621
6456.54	1.55604
6493.82	1.55588
6531.31	1.55572
6569.01	1.55558
6606.93	1.55545
6645.08	1.55532
6683.44	1.55521
6722.02	1.5551
6760.83	1.555
6799.86	1.55491
6839.12	1.55483
6878.6	1.55476
6918.31	1.5547
6958.25	1.55464
6998.42	1.5546
7038.82	1.55456
7079.46	1.55453
7120.33	1.5545
7161.43	1.55449
7202.78	1.55449
7244.36	1.55449
7286.18	1.5545
7328.25	1.55452
7370.55	1.55454
7413.1	1.55458
7455.9	1.55462
7498.94	1.55467
7542.23	1.55473
7585.78	1.55479
7629.57	1.55487
7673.61	1.55495
7717.92	1.55504
7762.47	1.55513
7807.28	1.55524
7852.36	1.55535
7897.69	1.55547
7943.28	1.55559
7989.14	1.55573
8035.26	1.55587
8081.65	1.55601
8128.31	1.55617
8175.23	1.55633
8222.43	1.5565
8269.9	1.55668
8317.64	1.55686
8365.66	1.55705
8413.95	1.55725
8462.53	1.55745
8511.38	1.55766
8560.52	1.55788
8609.94	1.5581
8659.64	1.55833
8709.64	1.55857
8759.92	1.55881
8810.49	1.55906
8861.35	1.55932
8912.51	1.55959
8963.96	1.55986
9015.71	1.56013
9067.76	1.56041
9120.11	1.5607
9172.76	1.561
9225.71	1.5613
9278.97	1.56161
9332.54	1.56192
9386.42	1.56224
9440.61	1.56257
9495.11	1.5629
9549.93	1.56324
9605.06	1.56358
9660.51	1.56393
9716.28	1.56429
9772.37	1.56465
9828.79	1.56501
9885.53	1.56539
9942.6	1.56577
10000	1.56615
10057.7	1.56654
10115.8	1.56693
10174.2	1.56734
10232.9	1.56774
10292	1.56815
10351.4	1.56857
10411.2	1.56899
10471.3	1.56942
10531.7	1.56985
10592.5	1.57029
10653.7	1.57074
10715.2	1.57119
10777.1	1.57164
10839.3	1.5721
10901.8	1.57256
10964.8	1.57303
11028.1	1.57351
11091.7	1.57399
11155.8	1.57447
11220.2	1.57496
11285	1.57545
11350.1	1.57595
11415.6	1.57645
11481.5	1.57696
11547.8	1.57748
11614.5	1.57799
11681.5	1.57851
11749	1.57904
11816.8	1.57957
11885	1.58011
11953.6	1.58065
12022.6	1.58119
12092.1	1.58174
12161.9	1.5823
12232.1	1.58286
12302.7	1.58342
12373.7	1.58398
12445.1	1.58455
12517	1.58513
12589.3	1.58571
12661.9	1.58629
12735	1.58688
12808.6	1.58747
12882.5	1.58807
12956.9	1.58867
13031.7	1.58927
13106.9	1.58988
13182.6	1.59049
13258.7	1.59111
13335.2	1.59173
13412.2	1.59235
13489.6	1.59298
13567.5	1.59361
13645.8	1.59424
13724.6	1.59488
13803.8	1.59552
13883.5	1.59617
13963.7	1.59682
14044.3	1.59747
14125.4	1.59813
14206.9	1.59879
14288.9	1.59945
14371.4	1.60012
14454.4	1.60079
14537.8	1.60146
14621.8	1.60214
14706.2	1.60282
14791.1	1.6035
14876.5	1.60419
14962.4	1.60488
15048.7	1.60558
15135.6	1.60627
15223	1.60697
15310.9	1.60768
15399.3	1.60838
15488.2	1.60909
15577.6	1.60981
15667.5	1.61052
15758	1.61124
15848.9	1.61196
15940.4	1.61269
16032.5	1.61341
16125	1.61414
16218.1	1.61488
16311.7	1.61561
16405.9	1.61635
16500.6	1.6171
16595.9	1.61784
16691.7	1.61859
16788	1.61934
16885	1.62009
16982.4	1.62085
17080.5	1.62161
17179.1	1.62237
17278.3	1.62313
17378	1.6239
17478.3	1.62467
17579.2	1.62544
17680.7	1.62621
17782.8	1.62699
17885.5	1.62777
17988.7	1.62855
18092.6	1.62933
18197	1.63012
18302.1	1.63091
18407.7	1.6317
18514	1.63249
18620.9	1.63328
18728.4	1.63408
18836.5	1.63488
18945.2	1.63568
19054.6	1.63649
19164.6	1.6373
19275.2	1.6381
19386.5	1.63891
19498.4	1.63973
19611	1.64054
19724.2	1.64136
19838.1	1.64218
19952.6	1.643
20067.8	1.64382
20183.7	1.64465
20300.2	1.64548
20417.4	1.64631
20535.3	1.64714
20653.8	1.64797
20773	1.64881
20893	1.64964
21013.6	1.65048
21134.9	1.65132
21256.9	1.65216
21379.6	1.65301
21503	1.65385
21627.2	1.6547
21752	1.65555
21877.6	1.6564
22003.9	1.65726
22130.9	1.65811
22258.7	1.65897
22387.2	1.65982
22516.5	1.66068
22646.4	1.66154
22777.2	1.66241
22908.7	1.66327
23040.9	1.66414
23173.9	1.665
23307.7	1.66587
23442.3	1.66674
23577.6	1.66762
23713.7	1.66849
23850.6	1.66936
23988.3	1.67024
24126.8	1.67112
24266.1	1.672
24406.2	1.67288
24547.1	1.67376
24688.8	1.67464
24831.3	1.67553
24974.7	1.67641
25118.9	1.6773
25263.9	1.67819
25409.7	1.67908
25556.4	1.67997
25704	1.68086
25852.3	1.68175
26001.6	1.68265
26151.7	1.68354
26302.7	1.68444
26454.5	1.68534
26607.3	1.68624
26760.9	1.68714
26915.3	1.68804
27070.7	1.68894
27227	1.68984
27384.2	1.69075
27542.3	1.69165
27701.3	1.69256
27861.2	1.69347
28022.1	1.69437
28183.8	1.69528
28346.5	1.69619
28510.2	1.69711
28674.8	1.69802
28840.3	1.69893
29006.8	1.69985
29174.3	1.70076
29342.7	1.70168
29512.1	1.70259
29682.5	1.70351
29853.8	1.70443
30026.2	1.70535
30199.5	1.70627
30373.9	1.70719
30549.2	1.70811
30725.6	1.70904
30903	1.70996
31081.4	1.71088
31260.8	1.71181
31441.3	1.71273
31622.8	1.71366
31805.3	1.71459
31989	1.71552
32173.6	1.71645
32359.4	1.71737
32546.2	1.7183
32734.1	1.71923
32923	1.72017
33113.1	1.7211
33304.3	1.72203
33496.5	1.72296
33689.9	1.7239
33884.4	1.72483
34080	1.72577
34276.8	1.7267
34474.7	1.72764
34673.7	1.72857
34873.9	1.72951
35075.2	1.73045
35277.7	1.73139
35481.3	1.73233
35686.2	1.73327
35892.2	1.7342
36099.4	1.73514
36307.8	1.73609
36517.4	1.73703
36728.2	1.73797
36940.3	1.73891
37153.5	1.73985
37368	1.74079
37583.7	1.74174
37800.7	1.74268
38018.9	1.74362
38238.4	1.74457
38459.2	1.74551
38681.2	1.74646
38904.5	1.7474
39129.1	1.74835
39355	1.7493
39582.2	1.75024
39810.7	1.75119
40040.5	1.75214
40271.7	1.75308
40504.2	1.75403
40738	1.75498
40973.2	1.75593
41209.8	1.75687
41447.7	1.75782
41686.9	1.75877
41927.6	1.75972
42169.7	1.76067
42413.1	1.76162
42658	1.76257
42904.2	1.76352
43151.9	1.76447
43401	1.76542
43651.6	1.76637
43903.6	1.76732
44157	1.76827
44412	1.76922
44668.4	1.77017
44926.2	1.77112
45185.6	1.77208
45446.5	1.77303
45708.8	1.77398
45972.7	1.77493
46238.1	1.77588
46505	1.77683
46773.5	1.77779
47043.5	1.77874
47315.1	1.77969
47588.3	1.78064
47863	1.7816
48139.3	1.78255
48417.2	1.7835
48696.8	1.78445
48977.9	1.7854
49260.6	1.78636
49545	1.78731
49831	1.78826
50118.7	1.78922
50408.1	1.79017
50699.1	1.79112
50991.8	1.79207
51286.1	1.79303
51582.2	1.79398
51880	1.79493
52179.5	1.79588
52480.7	1.79684
52783.7	1.79779
53088.4	1.79874
53394.9	1.79969
53703.2	1.80065
54013.2	1.8016
54325	1.80255
54638.7	1.8035
54954.1	1.80445
55271.3	1.80541
55590.4	1.80636
55911.4	1.80731
56234.1	1.80826
56558.8	1.80921
56885.3	1.81016
57213.7	1.81112
57544	1.81207
57876.2	1.81302
58210.3	1.81397
58546.4	1.81492
58884.4	1.81587
59224.3	1.81682
59566.2	1.81777
59910.1	1.81872
60256	1.81967
60603.8	1.82062
60953.7	1.82157
61305.6	1.82252
61659.5	1.82347
62015.5	1.82442
62373.5	1.82537
62733.6	1.82632
63095.7	1.82727
63460	1.82822
63826.3	1.82916
64194.8	1.83011
64565.4	1.83106
64938.2	1.83201
65313.1	1.83296
65690.1	1.8339
66069.3	1.83485
66450.8	1.8358
66834.4	1.83674
67220.2	1.83769
67608.3	1.83864
67998.6	1.83958
68391.2	1.84053
68786	1.84147
69183.1	1.84242
69582.5	1.84336
69984.2	1.84431
70388.2	1.84525
70794.6	1.8462
71203.3	1.84714
71614.3	1.84808
72027.8	1.84903
72443.6	1.84997
72861.8	1.85091
73282.5	1.85185
73705.5	1.8528
74131	1.85374
74559	1.85468
74989.4	1.85562
75422.3	1.85656
75857.8	1.8575
76295.7	1.85844
76736.1	1.85938
77179.2	1.86032
77624.7	1.86126
78072.8	1.8622
78523.6	1.86314
78976.9	1.86408
79432.8	1.86502
79891.4	1.86595
80352.6	1.86689
80816.5	1.86783
81283.1	1.86877
81752.3	1.8697
82224.3	1.87064
82699	1.87157
83176.4	1.87251
83656.6	1.87344
84139.5	1.87438
84625.3	1.87531
85113.8	1.87625
85605.2	1.87718
86099.4	1.87811
86596.4	1.87905
87096.4	1.87998
87599.2	1.88091
88104.9	1.88184
88613.5	1.88278
89125.1	1.88371
89639.6	1.88464
90157.1	1.88557
90677.6	1.8865
91201.1	1.88743
91727.6	1.88836
92257.1	1.88928
92789.7	1.89021
93325.4	1.89114
93864.2	1.89207
94406.1	1.893
94951.1	1.89392
95499.3	1.89485
96050.6	1.89577
96605.1	1.8967
97162.8	1.89762
97723.7	1.89855
98287.9	1.89947
98855.3	1.9004
99426	1.90132
100000	1.90224
100577	1.90317
101158	1.90409
101742	1.90501
102329	1.90593
102920	1.90685
103514	1.90777
104112	1.90869
104713	1.90961
105317	1.91053
105925	1.91145
106537	1.91237
107152	1.91329
107771	1.91421
108393	1.91512
109018	1.91604
109648	1.91696
110281	1.91787
110917	1.91879
111558	1.9197
112202	1.92062
112850	1.92153
113501	1.92244
114156	1.92336
114815	1.92427
115478	1.92518
116145	1.92609
116815	1.927
117490	1.92791
118168	1.92883
118850	1.92974
119536	1.93064
120226	1.93155
120921	1.93246
121619	1.93337
122321	1.93428
123027	1.93518
123737	1.93609
124451	1.937
125170	1.9379
125893	1.93881
126619	1.93971
127350	1.94062
128086	1.94152
128825	1.94242
129569	1.94333
130317	1.94423
131069	1.94513
131826	1.94603
132587	1.94693
133352	1.94783
134122	1.94873
134896	1.94963
135675	1.95053
136458	1.95143
137246	1.95233
138038	1.95323
138835	1.95412
139637	1.95502
140443	1.95592
141254	1.95681
142069	1.95771
142889	1.9586
143714	1.9595
144544	1.96039
145378	1.96128
146218	1.96218
147062	1.96307
147911	1.96396
148765	1.96485
149624	1.96574
150487	1.96663
151356	1.96752
152230	1.96841
153109	1.9693
153993	1.97019
154882	1.97108
155776	1.97197
156675	1.97285
157580	1.97374
158489	1.97462
159404	1.97551
160325	1.97639
161250	1.97728
162181	1.97816
163117	1.97905
164059	1.97993
165006	1.98081
165959	1.98169
166917	1.98257
167880	1.98345
168850	1.98434
169824	1.98521
170805	1.98609
171791	1.98697
172783	1.98785
173780	1.98873
174783	1.98961
175792	1.99048
176807	1.99136
177828	1.99224
178855	1.99311
179887	1.99399
180926	1.99486
181970	1.99573
183021	1.99661
184077	1.99748
185140	1.99835
186209	1.99922
187284	2.00009
188365	2.00097
189452	2.00184
190546	2.0027
191646	2.00357
192752	2.00444
193865	2.00531
194984	2.00618
196110	2.00705
197242	2.00791
198381	2.00878
199526	2.00964
200678	2.01051
201837	2.01137
203002	2.01224
204174	2.0131
205353	2.01396
206538	2.01483
207730	2.01569
208930	2.01655
210136	2.01741
211349	2.01827
212569	2.01913
213796	2.01999
215030	2.02085
216272	2.02171
217520	2.02257
218776	2.02342
220039	2.02428
221309	2.02514
222587	2.02599
223872	2.02685
225165	2.0277
226464	2.02856
227772	2.02941
229087	2.03026
230409	2.03112
231739	2.03197
233077	2.03282
234423	2.03367
235776	2.03452
237137	2.03537
238506	2.03622
239883	2.03707
241268	2.03792
242661	2.03877
244062	2.03961
245471	2.04046
246888	2.04131
248313	2.04215
249747	2.043
251189	2.04384
252639	2.04469
254097	2.04553
255564	2.04638
257040	2.04722
258523	2.04806
260016	2.0489
261517	2.04974
263027	2.05059
264545	2.05143
266073	2.05227
267609	2.0531
269153	2.05394
270707	2.05478
272270	2.05562
273842	2.05646
275423	2.05729
277013	2.05813
278612	2.05896
280221	2.0598
281838	2.06063
283465	2.06147
285102	2.0623
286748	2.06313
288403	2.06397
290068	2.0648
291743	2.06563
293427	2.06646
295121	2.06729
296825	2.06812
298538	2.06895
300262	2.06978
301995	2.07061
303739	2.07144
305492	2.07226
307256	2.07309
309030	2.07392
310814	2.07474
312608	2.07557
314413	2.07639
316228	2.07722
318053	2.07804
319890	2.07886
321736	2.07969
323594	2.08051
325462	2.08133
327341	2.08215
329230	2.08297
331131	2.08379
333043	2.08461
334965	2.08543
336899	2.08625
338844	2.08707
340800	2.08789
342768	2.0887
344747	2.08952
346737	2.09033
348739	2.09115
350752	2.09197
352777	2.09278
354813	2.09359
356862	2.09441
358922	2.09522
360994	2.09603
363078	2.09684
365174	2.09766
367282	2.09847
369403	2.09928
371535	2.10009
373680	2.1009
375837	2.1017
378007	2.10251
380189	2.10332
382384	2.10413
384592	2.10493
386812	2.10574
389045	2.10655
391291	2.10735
393550	2.10816
395822	2.10896
398107	2.10976
400405	2.11057
402717	2.11137
405042	2.11217
407380	2.11297
409732	2.11377
412098	2.11457
414477	2.11537
416869	2.11617
419276	2.11697
421697	2.11777
424131	2.11857
426580	2.11937
429042	2.12016
431519	2.12096
434010	2.12176
436516	2.12255
439036	2.12335
441570	2.12414
444120	2.12493
446684	2.12573
449262	2.12652
451856	2.12731
454465	2.1281
457088	2.1289
459727	2.12969
462381	2.13048
465050	2.13127
467735	2.13205
470435	2.13284
473151	2.13363
475883	2.13442
478630	2.13521
481393	2.13599
484172	2.13678
486968	2.13757
489779	2.13835
492606	2.13913
495450	2.13992
498310	2.1407
501187	2.14149
504081	2.14227
506991	2.14305
509918	2.14383
512861	2.14461
515822	2.14539
518800	2.14617
521795	2.14695
524807	2.14773
527837	2.14851
530884	2.14929
533949	2.15007
537032	2.15084
540132	2.15162
543250	2.1524
546387	2.15317
549541	2.15395
552713	2.15472
555904	2.15549
559114	2.15627
562341	2.15704
565588	2.15781
568853	2.15858
572137	2.15936
575440	2.16013
578762	2.1609
582103	2.16167
585464	2.16244
588844	2.1632
592243	2.16397
595662	2.16474
599101	2.16551
602560	2.16627
606038	2.16704
609537	2.16781
613056	2.16857
616595	2.16934
620155	2.1701
623735	2.17086
627336	2.17163
630957	2.17239
634600	2.17315
638263	2.17391
641948	2.17468
645654	2.17544
649382	2.1762
653131	2.17696
656901	2.17772
660693	2.17847
664508	2.17923
668344	2.17999
672202	2.18075
676083	2.1815
679986	2.18226
683912	2.18302
687860	2.18377
691831	2.18453
695825	2.18528
699842	2.18603
703882	2.18679
707946	2.18754
712033	2.18829
716143	2.18904
720278	2.18979
724436	2.19054
728618	2.19129
732825	2.19204
737055	2.19279
741310	2.19354
745590	2.19429
749894	2.19504
754223	2.19578
758578	2.19653
762957	2.19728
767361	2.19802
771792	2.19877
776247	2.19951
780728	2.20026
785236	2.201
789769	2.20174
794328	2.20248
798914	2.20323
803526	2.20397
808165	2.20471
812831	2.20545
817523	2.20619
822243	2.20693
826990	2.20767
831764	2.20841
836566	2.20914
841395	2.20988
846253	2.21062
851138	2.21136
856052	2.21209
860994	2.21283
865964	2.21356
870964	2.2143
875992	2.21503
881049	2.21576
886135	2.2165
891251	2.21723
896396	2.21796
901571	2.21869
906776	2.21942
912011	2.22015
917276	2.22088
922571	2.22161
927897	2.22234
933254	2.22307
938642	2.2238
944061	2.22453
949511	2.22525
954993	2.22598
960506	2.22671
966051	2.22743
971628	2.22816
977237	2.22888
982879	2.22961
988553	2.23033
994260	2.23105
1e+06	2.23177
1.00577e+06	2.2325
1.01158e+06	2.23322
1.01742e+06	2.23394
1.02329e+06	2.23466
1.0292e+06	2.23538
1.03514e+06	2.2361
1.04112e+06	2.23682
1.04713e+06	2.23754
1.05317e+06	2.23825
1.05925e+06	2.23897
1.06537e+06	2.23969
1.07152e+06	2.24041
1.07771e+06	2.24112
1.08393e+06	2.24184
1.09018e+06	2.24255
1.09648e+06	2.24327
1.10281e+06	2.24398
1.10917e+06	2.24469
1.11558e+06	2.24541
1.12202e+06	2.24612
1.1285e+06	2.24683
1.13501e+06	2.24754
1.14156e+06	2.24825
1.14815e+06	2.24896
1.15478e+06	2.24967
1.16145e+06	2.25038
1.16815e+06	2.25109
1.1749e+06	2.2518
1.18168e+06	2.25251
1.1885e+06	2.25322
1.19536e+06	2.25392
1.20226e+06	2.25463
1.20921e+06	2.25534
1.21619e+06	2.25604
1.22321e+06	2.25675
1.23027e+06	2.25745
1.23737e+06	2.25816
1.24451e+06	2.25886
1.2517e+06	2.25956
1.25893e+06	2.26027
1.26619e+06	2.26097
1.2735e+06	2.26167
1.28086e+06	2.26237
1.28825e+06	2.26307
1.29569e+06	2.26377
1.30317e+06	2.26447
1.31069e+06	2.26517
1.31826e+06	2.26587
1.32587e+06	2.26657
1.33352e+06	2.26726
1.34122e+06	2.26796
1.34896e+06	2.26866
1.35675e+06	2.26935
1.36458e+06	2.27005
1.37246e+06	2.27074
1.38038e+06	2.27144
1.38835e+06	2.27213
1.39637e+06	2.27283
1.40443e+06	2.27352
1.41254e+06	2.27421
1.42069e+06	2.27491
1.42889e+06	2.2756
1.43714e+06	2.27629
1.44544e+06	2.27698
1.45378e+06	2.27767
1.46218e+06	2.27836
1.47062e+06	2.27905
1.47911e+06	2.27974
1.48765e+06	2.28043
1.49624e+06	2.28111
1.50487e+06	2.2818
1.51356e+06	2.28249
1.5223e+06	2.28317
1.53109e+06	2.28386
1.53993e+06	2.28455
1.54882e+06	2.28523
1.55776e+06	2.28591
1.56675e+06	2.2866
1.5758e+06	2.28728
1.58489e+06	2.28796
1.59404e+06	2.28865
1.60325e+06	2.28933
1.6125e+06	2.29001
1.62181e+06	2.29069
1.63117e+06	2.29137
1.64059e+06	2.29205
1.65006e+06	2.29273
1.65959e+06	2.29341
1.66917e+06	2.29409
1.6788e+06	2.29477
1.6885e+06	2.29544
1.69824e+06	2.29612
1.70805e+06	2.2968
1.71791e+06	2.29747
1.72783e+06	2.29815
1.7378e+06	2.29882
1.74783e+06	2.2995
1.75792e+06	2.30017
1.76807e+06	2.30085
1.77828e+06	2.30152
1.78855e+06	2.30219
1.79887e+06	2.30286
1.80926e+06	2.30354
1.8197e+06	2.30421
1.83021e+06	2.30488
1.84077e+06	2.30555
1.8514e+06	2.30622
1.86209e+06	2.30689
1.87284e+06	2.30756
1.88365e+06	2.30822
1.89452e+06	2.30889
1.90546e+06	2.30956
1.91646e+06	2.31023
1.92752e+06	2.31089
1.93865e+06	2.31156
1.94984e+06	2.31222
1.9611e+06	2.31289
1.97242e+06	2.31355
1.98381e+06	2.31422
1.99526e+06	2.31488
2.00678e+06	2.31554
2.01837e+06	2.3162
2.03002e+06	2.31687
2.04174e+06	2.31753
2.05353e+06	2.31819
2.06538e+06	2.31885
2.0773e+06	2.31951
2.0893e+06	2.32017
2.10136e+06	2.32083
2.11349e+06	2.32148
2.12569e+06	2.32214
2.13796e+06	2.3228
2.1503e+06	2.32346
2.16272e+06	2.32411
2.1752e+06	2.32477
2.18776e+06	2.32542
2.20039e+06	2.32608
2.21309e+06	2.32673
2.22587e+06	2.32739
2.23872e+06	2.32804
2.25165e+06	2.32869
2.26464e+06	2.32935
2.27772e+06	2.33
2.29087e+06	2.33065
2.30409e+06	2.3313
2.31739e+06	2.33195
2.33077e+06	2.3326
2.34423e+06	2.33325
2.35776e+06	2.3339
2.37137e+06	2.33455
2.38506e+06	2.3352
2.39883e+06	2.33584
2.41268e+06	2.33649
2.42661e+06	2.33714
2.44062e+06	2.33778
2.45471e+06	2.33843
2.46888e+06	2.33907
2.48313e+06	2.33972
2.49747e+06	2.34036
2.51189e+06	2.341
2.52639e+06	2.34165
2.54097e+06	2.34229
2.55564e+06	2.34293
2.5704e+06	2.34357
2.58523e+06	2.34421
2.60016e+06	2.34485
2.61517e+06	2.34549
2.63027e+06	2.34613
2.64545e+06	2.34677
2.66073e+06	2.34741
2.67609e+06	2.34805
2.69153e+06	2.34868
2.70707e+06	2.34932
2.7227e+06	2.34996
2.73842e+06	2.35059
2.75423e+06	2.35123
2.77013e+06	2.35186
2.78612e+06	2.3525
2.80221e+06	2.35313
2.81838e+06	2.35376
2.83465e+06	2.3544
2.85102e+06	2.35503
2.86748e+06	2.35566
2.88403e+06	2.35629
2.90068e+06	2.35692
2.91743e+06	2.35755
2.93427e+06	2.35818
2.95121e+06	2.35881
2.96825e+06	2.35944
2.98538e+06	2.36007
3.00262e+06	2.36069
3.01995e+06	2.36132
3.03739e+06	2.36195
3.05492e+06	2.36257
3.07256e+06	2.3632
3.0903e+06	2.36382
3.10814e+06	2.36445
3.12608e+06	2.36507
3.14413e+06	2.36569
3.16228e+06	2.36632
3.18053e+06	2.36694
3.1989e+06	2.36756
3.21736e+06	2.36818
3.23594e+06	2.3688
3.25462e+06	2.36942
3.27341e+06	2.37004
3.2923e+06	2.37066
3.31131e+06	2.37128
3.33043e+06	2.3719
3.34965e+06	2.37251
3.36899e+06	2.37313
3.38844e+06	2.37375
3.408e+06	2.37436
3.42768e+06	2.37498
3.44747e+06	2.37559
3.46737e+06	2.37621
3.48739e+06	2.37682
3.50752e+06	2.37743
3.52777e+06	2.37805
3.54813e+06	2.37866
3.56862e+06	2.37927
3.58922e+06	2.37988
3.60994e+06	2.38049
3.63078e+06	2.3811
3.65174e+06	2.38171
3.67282e+06	2.38232
3.69403e+06	2.38293
3.71535e+06	2.38354
3.7368e+06	2.38414
3.75837e+06	2.38475
3.78007e+06	2.38536
3.80189e+06	2.38596
3.82384e+06	2.38657
3.84592e+06	2.38717
3.86812e+06	2.38778
3.89045e+06	2.38838
3.91291e+06	2.38898
3.9355e+06	2.38958
3.95822e+06	2.39019
3.98107e+06	2.39079
4.00405e+06	2.39139
4.02717e+06	2.39199
4.05042e+06	2.39259
4.0738e+06	2.39319
4.09732e+06	2.39379
4.12098e+06	2.39439
4.14477e+06	2.39498
4.16869e+06	2.39558
4.19276e+06	2.39618
4.21697e+06	2.39677
4.24131e+06	2.39737
4.2658e+06	2.39797
4.29042e+06	2.39856
4.31519e+06	2.39915
4.3401e+06	2.39975
4.36516e+06	2.40034
4.39036e+06	2.40093
4.4157e+06	2.40153
4.4412e+06	2.40212
4.46684e+06	2.40271
4.49262e+06	2.4033
4.51856e+06	2.40389
4.54465e+06	2.40448
4.57088e+06	2.40507
4.59727e+06	2.40565
4.62381e+06	2.40624
4.6505e+06	2.40683
4.67735e+06	2.40742
4.70435e+06	2.408
4.73151e+06	2.40859
4.75883e+06	2.40917
4.7863e+06	2.40976
4.81393e+06	2.41034
4.84172e+06	2.41093
4.86968e+06	2.41151
4.89779e+06	2.41209
4.92606e+06	2.41267
4.9545e+06	2.41325
4.9831e+06	2.41383
5.01187e+06	2.41442
5.04081e+06	2.415
5.06991e+06	2.41557
5.09918e+06	2.41615
5.12861e+06	2.41673
5.15822e+06	2.41731
5.188e+06	2.41789
5.21795e+06	2.41846
5.24807e+06	2.41904
5.27837e+06	2.41962
5.30884e+06	2.42019
5.33949e+06	2.42077
5.37032e+06	2.42134
5.40132e+06	2.42191
5.4325e+06	2.42249
5.46387e+06	2.42306
5.49541e+06	2.42363
5.52713e+06	2.4242
5.55904e+06	2.42477
5.59114e+06	2.42534
5.62341e+06	2.42591
5.65588e+06	2.42648
5.68853e+06	2.42705
5.72137e+06	2.42762
5.7544e+06	2.42819
5.78762e+06	2.42876
5.82103e+06	2.42932
5.85464e+06	2.42989
5.88844e+06	2.43045
5.92243e+06	2.43102
5.95662e+06	2.43156
5.99101e+06	2.43146
6.0256e+06	2.43136
6.06038e+06	2.43127
6.09537e+06	2.43117
6.13056e+06	2.43108
6.16595e+06	2.43098
6.20155e+06	2.43089
6.23735e+06	2.4308
6.27336e+06	2.43071
6.30957e+06	2.43062
6.346e+06	2.43053
6.38263e+06	2.43044
6.41948e+06	2.43035
6.45654e+06	2.43027
6.49382e+06	2.43018
6.53131e+06	2.4301
6.56901e+06	2.43002
6.60693e+06	2.42994
6.64508e+06	2.42986
6.68344e+06	2.42978
6.72202e+06	2.4297
6.76083e+06	2.42962
6.79986e+06	2.42954
6.83912e+06	2.42947
6.8786e+06	2.42939
6.91831e+06	2.42932
6.95825e+06	2.42924
6.99842e+06	2.42917
7.03882e+06	2.4291
7.07946e+06	2.42903
7.12033e+06	2.42896
7.16143e+06	2.42889
7.20278e+06	2.42882
7.24436e+06	2.42875
7.28618e+06	2.42868
7.32825e+06	2.42862
7.37055e+06	2.42855
7.4131e+06	2.42849
7.4559e+06	2.42842
7.49894e+06	2.42836
7.54223e+06	2.4283
7.58578e+06	2.42823
7.62957e+06	2.42817
7.67361e+06	2.42811
7.71792e+06	2.42805
7.76247e+06	2.42799
7.80728e+06	2.42793
7.85236e+06	2.42788
7.89769e+06	2.42782
7.94328e+06	2.42776
7.98914e+06	2.42771
8.03526e+06	2.42765
8.08165e+06	2.4276
8.12831e+06	2.42754
8.17523e+06	2.42749
8.22243e+06	2.42744
8.2699e+06	2.42738
8.31764e+06	2.42733
8.36566e+06	2.42728
8.41395e+06	2.42723
8.46253e+06	2.42718
8.51138e+06	2.42713
8.56052e+06	2.42708
8.60994e+06	2.42704
8.65964e+06	2.42699
8.70964e+06	2.42694
8.75992e+06	2.42689
8.81049e+06	2.42685
8.86135e+06	2.4268
8.91251e+06	2.42676
8.96396e+06	2.42671
9.01571e+06	2.42667
9.06776e+06	2.42663
9.12011e+06	2.42658
9.17276e+06	2.42654
9.22571e+06	2.4265
9.27897e+06	2.42646
9.33254e+06	2.42642
9.38642e+06	2.42638
9.44061e+06	2.42634
9.49511e+06	2.4263
9.54993e+06	2.42626
9.60506e+06	2.42622
9.66051e+06	2.42618
9.71628e+06	2.42614
9.77237e+06	2.42611
9.82879e+06	2.42607
9.88553e+06	2.42603
9.9426e+06	2.426
1e+07	2.42596
