Stopping power dEdx from Ionisation for Li7[0.0] Z = 3 in G4_TISSUE_SOFT_ICRP, process name: ionIoni
E [MeV]	dEdx [MeV/mm]
0.001	25.177
0.00100577	25.2495
0.00101158	25.3223
0.00101742	25.3953
0.00102329	25.4685
0.0010292	25.5419
0.00103514	25.6155
0.00104112	25.6894
0.00104713	25.7634
0.00105317	25.8377
0.00105925	25.9121
0.00106537	25.9868
0.00107152	26.0617
0.00107771	26.1368
0.00108393	26.2122
0.00109018	26.2877
0.00109648	26.3635
0.00110281	26.4395
0.00110917	26.5157
0.00111558	26.5921
0.00112202	26.6688
0.0011285	26.7457
0.00113501	26.8227
0.00114156	26.9001
0.00114815	26.9776
0.00115478	27.0554
0.00116145	27.1333
0.00116815	27.2115
0.0011749	27.29
0.00118168	27.3686
0.0011885	27.4475
0.00119536	27.5266
0.00120226	27.606
0.00120921	27.6856
0.00121619	27.7654
0.00122321	27.8454
0.00123027	27.9256
0.00123737	28.0061
0.00124451	28.0869
0.0012517	28.1678
0.00125893	28.249
0.00126619	28.3304
0.0012735	28.4121
0.00128086	28.494
0.00128825	28.5761
0.00129569	28.6585
0.00130317	28.7411
0.00131069	28.8239
0.00131826	28.907
0.00132587	28.9903
0.00133352	29.0739
0.00134122	29.1577
0.00134896	29.2417
0.00135675	29.326
0.00136458	29.4106
0.00137246	29.4953
0.00138038	29.5803
0.00138835	29.6656
0.00139637	29.7511
0.00140443	29.8369
0.00141254	29.9229
0.00142069	30.0091
0.00142889	30.0956
0.00143714	30.1824
0.00144544	30.2694
0.00145378	30.3566
0.00146218	30.4441
0.00147062	30.5319
0.00147911	30.6199
0.00148765	30.7081
0.00149624	30.7966
0.00150487	30.8854
0.00151356	30.9744
0.0015223	31.0637
0.00153109	31.1532
0.00153993	31.243
0.00154882	31.3331
0.00155776	31.4234
0.00156675	31.514
0.0015758	31.6048
0.00158489	31.6959
0.00159404	31.7873
0.00160325	31.8789
0.0016125	31.9708
0.00162181	32.0629
0.00163117	32.1553
0.00164059	32.248
0.00165006	32.341
0.00165959	32.4342
0.00166917	32.5277
0.0016788	32.6214
0.0016885	32.7155
0.00169824	32.8098
0.00170805	32.9043
0.00171791	32.9992
0.00172783	33.0943
0.0017378	33.1897
0.00174783	33.2854
0.00175792	33.3801
0.00176807	33.474
0.00177828	33.5682
0.00178855	33.6626
0.00179887	33.7573
0.00180926	33.8523
0.0018197	33.9475
0.00183021	34.0431
0.00184077	34.1389
0.0018514	34.2349
0.00186209	34.3313
0.00187284	34.4279
0.00188365	34.5248
0.00189452	34.622
0.00190546	34.7195
0.00191646	34.8172
0.00192752	34.9152
0.00193865	35.0135
0.00194984	35.1121
0.0019611	35.211
0.00197242	35.3102
0.00198381	35.4096
0.00199526	35.5093
0.00200678	35.6094
0.00201837	35.7097
0.00203002	35.8103
0.00204174	35.9112
0.00205353	36.0123
0.00206538	36.1138
0.0020773	36.2156
0.0020893	36.3176
0.00210136	36.42
0.00211349	36.5226
0.00212569	36.6256
0.00213796	36.7288
0.0021503	36.8323
0.00216272	36.9362
0.0021752	37.0403
0.00218776	37.1447
0.00220039	37.2495
0.00221309	37.3545
0.00222587	37.4599
0.00223872	37.5655
0.00225165	37.6714
0.00226464	37.7777
0.00227772	37.8843
0.00229087	37.9911
0.00230409	38.0983
0.00231739	38.2058
0.00233077	38.3136
0.00234423	38.4217
0.00235776	38.5301
0.00237137	38.6389
0.00238506	38.7479
0.00239883	38.8573
0.00241268	38.967
0.00242661	39.077
0.00244062	39.1873
0.00245471	39.2979
0.00246888	39.4089
0.00248313	39.5201
0.00249747	39.6317
0.00251189	39.7436
0.00252639	39.8559
0.00254097	39.9684
0.00255564	40.0813
0.0025704	40.1946
0.00258523	40.3081
0.00260016	40.422
0.00261517	40.5362
0.00263027	40.6507
0.00264545	40.7656
0.00266073	40.8808
0.00267609	40.9963
0.00269153	41.1122
0.00270707	41.2284
0.0027227	41.3449
0.00273842	41.4618
0.00275423	41.579
0.00277013	41.6965
0.00278612	41.8144
0.00280221	41.9326
0.00281838	42.0512
0.00283465	42.1701
0.00285102	42.2894
0.00286748	42.409
0.00288403	42.5289
0.00290068	42.6492
0.00291743	42.7699
0.00293427	42.8909
0.00295121	43.0122
0.00296825	43.1339
0.00298538	43.256
0.00300262	43.3784
0.00301995	43.5012
0.00303739	43.6243
0.00305492	43.7477
0.00307256	43.8716
0.0030903	43.9958
0.00310814	44.1203
0.00312608	44.2452
0.00314413	44.3705
0.00316228	44.4961
0.00318053	44.6221
0.0031989	44.7485
0.00321736	44.8752
0.00323594	45.0023
0.00325462	45.1298
0.00327341	45.2576
0.0032923	45.3858
0.00331131	45.5144
0.00333043	45.6434
0.00334965	45.7727
0.00336899	45.9024
0.00338844	46.0325
0.003408	46.1629
0.00342768	46.2937
0.00344747	46.425
0.00346737	46.5566
0.00348739	46.6885
0.00350752	46.8209
0.00352777	46.9536
0.00354813	47.0868
0.00356862	47.2203
0.00358922	47.3542
0.00360994	47.4885
0.00363078	47.6232
0.00365174	47.7582
0.00367282	47.8937
0.00369403	48.0295
0.00371535	48.1658
0.0037368	48.3024
0.00375837	48.4395
0.00378007	48.5769
0.00380189	48.7148
0.00382384	48.853
0.00384592	48.9917
0.00386812	49.1307
0.00389045	49.2702
0.00391291	49.41
0.0039355	49.5503
0.00395822	49.691
0.00398107	49.8321
0.00400405	49.9735
0.00402717	50.1154
0.00405042	50.2578
0.0040738	50.4005
0.00409732	50.5436
0.00412098	50.6872
0.00414477	50.8312
0.00416869	50.9756
0.00419276	51.1204
0.00421697	51.2656
0.00424131	51.4113
0.0042658	51.5574
0.00429042	51.7039
0.00431519	51.8508
0.0043401	51.9982
0.00436516	52.146
0.00439036	52.2942
0.0044157	52.4429
0.0044412	52.592
0.00446684	52.7415
0.00449262	52.8914
0.00451856	53.0418
0.00454465	53.1927
0.00457088	53.3439
0.00459727	53.4956
0.00462381	53.6478
0.0046505	53.8004
0.00467735	53.9534
0.00470435	54.1069
0.00473151	54.2609
0.00475883	54.4153
0.0047863	54.5701
0.00481393	54.7254
0.00484172	54.8811
0.00486968	55.0373
0.00489779	55.194
0.00492606	55.3511
0.0049545	55.5086
0.0049831	55.6666
0.00501187	55.8251
0.00504081	55.9841
0.00506991	56.1435
0.00509918	56.3034
0.00512861	56.4637
0.00515822	56.6245
0.005188	56.7858
0.00521795	56.9475
0.00524807	57.1097
0.00527837	57.2724
0.00530884	57.4356
0.00533949	57.5992
0.00537032	57.7634
0.00540132	57.928
0.0054325	58.093
0.00546387	58.2586
0.00549541	58.4247
0.00552713	58.5912
0.00555904	58.7582
0.00559114	58.9257
0.00562341	59.0937
0.00565588	59.2622
0.00568853	59.4312
0.00572137	59.6006
0.0057544	59.7706
0.00578762	59.9411
0.00582103	60.112
0.00585464	60.2835
0.00588844	60.4554
0.00592243	60.6279
0.00595662	60.8009
0.00599101	60.9743
0.0060256	61.1483
0.00606038	61.3228
0.00609537	61.4978
0.00613056	61.6733
0.00616595	61.8493
0.00620155	62.0259
0.00623735	62.2029
0.00627336	62.3805
0.00630957	62.5586
0.006346	62.7372
0.00638263	62.9163
0.00641948	63.096
0.00645654	63.2762
0.00649382	63.4569
0.00653131	63.6381
0.00656901	63.8199
0.00660693	64.0022
0.00664508	64.185
0.00668344	64.3684
0.00672202	64.5523
0.00676083	64.7368
0.00679986	64.9217
0.00683912	65.1073
0.0068786	65.2933
0.00691831	65.48
0.00695825	65.6671
0.00699842	65.8548
0.00703882	65.9555
0.00707946	65.9994
0.00712033	66.0438
0.00716143	66.0886
0.00720278	66.1339
0.00724436	66.1797
0.00728618	66.2259
0.00732825	66.2725
0.00737055	66.3196
0.0074131	66.3671
0.0074559	66.4151
0.00749894	66.4634
0.00754223	66.5122
0.00758578	66.5614
0.00762957	66.611
0.00767361	66.6609
0.00771792	66.7113
0.00776247	66.7621
0.00780728	66.8132
0.00785236	66.8647
0.00789769	66.9166
0.00794328	66.9688
0.00798914	67.0214
0.00803526	67.0744
0.00808165	67.1277
0.00812831	67.1814
0.00817523	67.2355
0.00822243	67.2898
0.0082699	67.3445
0.00831764	67.3996
0.00836566	67.4549
0.00841395	67.5106
0.00846253	67.5666
0.00851138	67.623
0.00856052	67.6796
0.00860994	67.7366
0.00865964	67.7939
0.00870964	67.8514
0.00875992	67.9093
0.00881049	67.9675
0.00886135	68.026
0.00891251	68.0848
0.00896396	68.1438
0.00901571	68.2032
0.00906776	68.2628
0.00912011	68.3227
0.00917276	68.3829
0.00922571	68.4434
0.00927897	68.5042
0.00933254	68.5652
0.00938642	68.6265
0.00944061	68.6881
0.00949511	68.7499
0.00954993	68.812
0.00960506	68.8743
0.00966051	68.937
0.00971628	68.9998
0.00977237	69.063
0.00982879	69.1263
0.00988553	69.19
0.0099426	69.2539
0.01	69.318
0.0100577	69.3824
0.0101158	69.447
0.0101742	69.5119
0.0102329	69.577
0.010292	69.6424
0.0103514	69.708
0.0104112	69.7739
0.0104713	69.8399
0.0105317	69.9063
0.0105925	69.9728
0.0106537	70.0396
0.0107152	70.1066
0.0107771	70.1739
0.0108393	70.2414
0.0109018	70.3091
0.0109648	70.377
0.0110281	70.4452
0.0110917	70.5136
0.0111558	70.5823
0.0112202	70.6511
0.011285	70.7202
0.0113501	70.7896
0.0114156	70.8591
0.0114815	70.9289
0.0115478	70.9989
0.0116145	71.0691
0.0116815	71.1396
0.011749	71.2102
0.0118168	71.2811
0.011885	71.3522
0.0119536	71.4236
0.0120226	71.4952
0.0120921	71.567
0.0121619	71.639
0.0122321	71.7112
0.0123027	71.7837
0.0123737	71.8564
0.0124451	71.9293
0.012517	72.0024
0.0125893	72.0758
0.0126619	72.1493
0.012735	72.2231
0.0128086	72.2972
0.0128825	72.3714
0.0129569	72.4459
0.0130317	72.5206
0.0131069	72.5955
0.0131826	72.6707
0.0132587	72.7461
0.0133352	72.8217
0.0134122	72.8975
0.0134896	72.9736
0.0135675	73.0499
0.0136458	73.1264
0.0137246	73.2032
0.0138038	73.2802
0.0138835	73.3574
0.0139637	73.4349
0.0140443	73.5125
0.0141254	73.5905
0.0142069	73.6686
0.0142889	73.747
0.0143714	73.8256
0.0144544	73.9045
0.0145378	73.9836
0.0146218	74.0629
0.0147062	74.1425
0.0147911	74.2223
0.0148765	74.3024
0.0149624	74.3827
0.0150487	74.4633
0.0151356	74.5441
0.015223	74.6251
0.0153109	74.7064
0.0153993	74.7879
0.0154882	74.8697
0.0155776	74.9518
0.0156675	75.034
0.015758	75.1166
0.0158489	75.1994
0.0159404	75.2824
0.0160325	75.3657
0.016125	75.4493
0.0162181	75.5331
0.0163117	75.6172
0.0164059	75.7016
0.0165006	75.7862
0.0165959	75.871
0.0166917	75.9562
0.016788	76.0416
0.016885	76.1273
0.0169824	76.2132
0.0170805	76.2994
0.0171791	76.3859
0.0172783	76.4727
0.017378	76.5597
0.0174783	76.6471
0.0175792	76.7347
0.0176807	76.8225
0.0177828	76.9107
0.0178855	76.9992
0.0179887	77.0879
0.0180926	77.1769
0.018197	77.2662
0.0183021	77.3558
0.0184077	77.4457
0.018514	77.5359
0.0186209	77.6264
0.0187284	77.7171
0.0188365	77.8082
0.0189452	77.8996
0.0190546	77.9913
0.0191646	78.0832
0.0192752	78.1755
0.0193865	78.2681
0.0194984	78.361
0.019611	78.4542
0.0197242	78.5478
0.0198381	78.6416
0.0199526	78.7357
0.0200678	78.8302
0.0201837	78.925
0.0203002	79.0201
0.0204174	79.1156
0.0205353	79.2113
0.0206538	79.3074
0.020773	79.4038
0.020893	79.5006
0.0210136	79.5976
0.0211349	79.6951
0.0212569	79.7928
0.0213796	79.8909
0.021503	79.9893
0.0216272	80.0881
0.021752	80.1872
0.0218776	80.2867
0.0220039	80.3865
0.0221309	80.4866
0.0222587	80.5871
0.0223872	80.688
0.0225165	80.7892
0.0226464	80.8908
0.0227772	80.9927
0.0229087	81.095
0.0230409	81.1976
0.0231739	81.3007
0.0233077	81.404
0.0234423	81.5078
0.0235776	81.6119
0.0237137	81.7164
0.0238506	81.8213
0.0239883	81.9266
0.0241268	82.0322
0.0242661	82.1382
0.0244062	82.2446
0.0245471	82.3514
0.0246888	82.4585
0.0248313	82.5661
0.0249747	82.674
0.0251189	82.7824
0.0252639	82.8911
0.0254097	83.0002
0.0255564	83.1098
0.025704	83.2197
0.0258523	83.33
0.0260016	83.4408
0.0261517	83.5519
0.0263027	83.6635
0.0264545	83.7755
0.0266073	83.8879
0.0267609	84.0007
0.0269153	84.1139
0.0270707	84.2275
0.027227	84.3416
0.0273842	84.4561
0.0275423	84.571
0.0277013	84.6863
0.0278612	84.8021
0.0280221	84.9183
0.0281838	85.0349
0.0283465	85.152
0.0285102	85.2695
0.0286748	85.3874
0.0288403	85.5058
0.0290068	85.6247
0.0291743	85.744
0.0293427	85.8637
0.0295121	85.9839
0.0296825	86.1045
0.0298538	86.2256
0.0300262	86.3472
0.0301995	86.4692
0.0303739	86.5917
0.0305492	86.7146
0.0307256	86.838
0.030903	86.9619
0.0310814	87.0862
0.0312608	87.211
0.0314413	87.3363
0.0316228	87.4621
0.0318053	87.5883
0.031989	87.715
0.0321736	87.8422
0.0323594	87.9699
0.0325462	88.0981
0.0327341	88.2268
0.032923	88.3559
0.0331131	88.4856
0.0333043	88.6157
0.0334965	88.7464
0.0336899	88.8775
0.0338844	89.0091
0.03408	89.1413
0.0342768	89.2739
0.0344747	89.4071
0.0346737	89.5408
0.0348739	89.6749
0.0350752	89.8096
0.0352777	89.9449
0.0354813	90.0806
0.0356862	90.2168
0.0358922	90.3536
0.0360994	90.4909
0.0363078	90.6287
0.0365174	90.7671
0.0367282	90.906
0.0369403	91.0454
0.0371535	91.1853
0.037368	91.3258
0.0375837	91.4668
0.0378007	91.6084
0.0380189	91.7505
0.0382384	91.8932
0.0384592	92.0364
0.0386812	92.1801
0.0389045	92.3244
0.0391291	92.4693
0.039355	92.6147
0.0395822	92.7606
0.0398107	92.9072
0.0400405	93.0543
0.0402717	93.2019
0.0405042	93.3501
0.040738	93.4989
0.0409732	93.6483
0.0412098	93.7982
0.0414477	93.9487
0.0416869	94.0998
0.0419276	94.2514
0.0421697	94.4036
0.0424131	94.5565
0.042658	94.7099
0.0429042	94.8638
0.0431519	95.0184
0.043401	95.1736
0.0436516	95.3293
0.0439036	95.4857
0.044157	95.6426
0.044412	95.8001
0.0446684	95.9583
0.0449262	96.117
0.0451856	96.2764
0.0454465	96.4363
0.0457088	96.5969
0.0459727	96.758
0.0462381	96.9198
0.046505	97.0822
0.0467735	97.2452
0.0470435	97.4088
0.0473151	97.5731
0.0475883	97.7379
0.047863	97.9034
0.0481393	98.0695
0.0484172	98.2362
0.0486968	98.4036
0.0489779	98.5716
0.0492606	98.7402
0.049545	98.9095
0.049831	99.0794
0.0501187	99.2499
0.0504081	99.4211
0.0506991	99.5929
0.0509918	99.7654
0.0512861	99.9385
0.0515822	100.112
0.05188	100.287
0.0521795	100.462
0.0524807	100.637
0.0527837	100.814
0.0530884	100.991
0.0533949	101.168
0.0537032	101.347
0.0540132	101.526
0.054325	101.705
0.0546387	101.886
0.0549541	102.067
0.0552713	102.248
0.0555904	102.431
0.0559114	102.614
0.0562341	102.797
0.0565588	102.982
0.0568853	103.167
0.0572137	103.352
0.057544	103.539
0.0578762	103.726
0.0582103	103.914
0.0585464	104.102
0.0588844	104.291
0.0592243	104.481
0.0595662	104.672
0.0599101	104.863
0.060256	105.055
0.0606038	105.247
0.0609537	105.44
0.0613056	105.634
0.0616595	105.829
0.0620155	106.025
0.0623735	106.221
0.0627336	106.417
0.0630957	106.615
0.06346	106.813
0.0638263	107.012
0.0641948	107.212
0.0645654	107.412
0.0649382	107.613
0.0653131	107.815
0.0656901	108.017
0.0660693	108.22
0.0664508	108.424
0.0668344	108.629
0.0672202	108.834
0.0676083	109.04
0.0679986	109.247
0.0683912	109.455
0.068786	109.663
0.0691831	109.872
0.0695825	110.082
0.0699842	110.292
0.0703882	110.503
0.0707946	110.715
0.0712033	110.928
0.0716143	111.141
0.0720278	111.355
0.0724436	111.57
0.0728618	111.786
0.0732825	112.002
0.0737055	112.219
0.074131	112.437
0.074559	112.656
0.0749894	112.875
0.0754223	113.095
0.0758578	113.316
0.0762957	113.537
0.0767361	113.76
0.0771792	113.983
0.0776247	114.207
0.0780728	114.431
0.0785236	114.657
0.0789769	114.883
0.0794328	115.109
0.0798914	115.337
0.0803526	115.565
0.0808165	115.794
0.0812831	116.024
0.0817523	116.255
0.0822243	116.486
0.082699	116.718
0.0831764	116.951
0.0836566	117.185
0.0841395	117.419
0.0846253	117.654
0.0851138	117.89
0.0856052	118.127
0.0860994	118.365
0.0865964	118.603
0.0870964	118.842
0.0875992	119.082
0.0881049	119.322
0.0886135	119.563
0.0891251	119.805
0.0896396	120.048
0.0901571	120.292
0.0906776	120.536
0.0912011	120.781
0.0917276	121.027
0.0922571	121.274
0.0927897	121.521
0.0933254	121.77
0.0938642	122.019
0.0944061	122.268
0.0949511	122.519
0.0954993	122.77
0.0960506	123.022
0.0966051	123.275
0.0971628	123.529
0.0977237	123.783
0.0982879	124.038
0.0988553	124.294
0.099426	124.551
0.1	124.808
0.100577	125.066
0.101158	125.325
0.101742	125.585
0.102329	125.846
0.10292	126.107
0.103514	126.369
0.104112	126.632
0.104713	126.895
0.105317	127.16
0.105925	127.425
0.106537	127.691
0.107152	127.957
0.107771	128.225
0.108393	128.493
0.109018	128.762
0.109648	129.031
0.110281	129.302
0.110917	129.573
0.111558	129.845
0.112202	130.117
0.11285	130.391
0.113501	130.665
0.114156	130.94
0.114815	131.216
0.115478	131.492
0.116145	131.769
0.116815	132.047
0.11749	132.326
0.118168	132.605
0.11885	132.886
0.119536	133.21
0.120226	133.644
0.120921	134.08
0.121619	134.519
0.122321	134.96
0.123027	135.404
0.123737	135.851
0.124451	136.3
0.12517	136.751
0.125893	137.206
0.126619	137.663
0.12735	138.122
0.128086	138.585
0.128825	139.049
0.129569	139.517
0.130317	139.988
0.131069	140.461
0.131826	140.937
0.132587	141.415
0.133352	141.897
0.134122	142.381
0.134896	142.868
0.135675	143.358
0.136458	143.851
0.137246	144.347
0.138038	144.846
0.138835	145.347
0.139637	145.852
0.140443	146.359
0.141254	146.87
0.142069	147.384
0.142889	147.9
0.143714	148.42
0.144544	148.943
0.145378	149.469
0.146218	149.998
0.147062	150.53
0.147911	151.065
0.148765	151.604
0.149624	152.146
0.150487	152.691
0.151356	153.239
0.15223	153.791
0.153109	154.346
0.153993	154.904
0.154882	155.465
0.155776	156.03
0.156675	156.598
0.15758	157.17
0.158489	157.745
0.159404	158.324
0.160325	158.906
0.16125	159.492
0.162181	160.081
0.163117	160.674
0.164059	161.27
0.165006	161.87
0.165959	162.474
0.166917	163.081
0.16788	163.692
0.16885	164.306
0.169824	164.925
0.170805	165.547
0.171791	166.173
0.172783	166.803
0.17378	167.436
0.174783	168.074
0.175792	168.715
0.176807	169.314
0.177828	169.881
0.178855	170.451
0.179887	171.023
0.180926	171.598
0.18197	172.175
0.183021	172.754
0.184077	173.336
0.18514	173.921
0.186209	174.508
0.187284	175.097
0.188365	175.689
0.189452	176.283
0.190546	176.88
0.191646	177.479
0.192752	178.081
0.193865	178.685
0.194984	179.292
0.19611	179.901
0.197242	180.513
0.198381	181.127
0.199526	181.743
0.200678	182.362
0.201837	182.984
0.203002	183.608
0.204174	184.235
0.205353	184.864
0.206538	185.495
0.20773	186.129
0.20893	186.766
0.210136	187.404
0.211349	188.046
0.212569	188.69
0.213796	189.336
0.21503	189.985
0.216272	190.636
0.21752	191.29
0.218776	191.947
0.220039	192.605
0.221309	193.267
0.222587	193.931
0.223872	194.597
0.225165	195.265
0.226464	195.937
0.227772	196.61
0.229087	197.286
0.230409	197.965
0.231739	198.646
0.233077	199.329
0.234423	200.015
0.235776	200.704
0.237137	201.394
0.238506	202.088
0.239883	202.783
0.241268	203.481
0.242661	204.182
0.244062	204.885
0.245471	205.59
0.246888	206.298
0.248313	207.008
0.249747	207.721
0.251189	208.436
0.252639	209.153
0.254097	209.873
0.255564	210.595
0.25704	211.319
0.258523	212.046
0.260016	212.775
0.261517	213.506
0.263027	214.24
0.264545	214.976
0.266073	215.714
0.267609	216.455
0.269153	217.198
0.270707	217.943
0.27227	218.691
0.273842	219.44
0.275423	220.192
0.277013	220.946
0.278612	221.703
0.280221	222.461
0.281838	223.222
0.283465	223.985
0.285102	224.75
0.286748	225.518
0.288403	226.287
0.290068	227.059
0.291743	227.833
0.293427	228.609
0.295121	229.386
0.296825	230.166
0.298538	230.949
0.300262	231.733
0.301995	232.519
0.303739	233.307
0.305492	234.097
0.307256	234.889
0.30903	235.683
0.310814	236.479
0.312608	237.277
0.314413	238.077
0.316228	238.879
0.318053	239.682
0.31989	240.488
0.321736	241.295
0.323594	242.104
0.325462	242.915
0.327341	243.728
0.32923	244.542
0.331131	245.358
0.333043	246.176
0.334965	246.996
0.336899	247.817
0.338844	248.64
0.3408	249.464
0.342768	250.29
0.344747	251.117
0.346737	251.946
0.348739	252.777
0.350752	253.609
0.352777	254.443
0.354813	255.278
0.356862	256.114
0.358922	256.952
0.360994	257.791
0.363078	258.631
0.365174	259.473
0.367282	260.316
0.369403	261.16
0.371535	262.006
0.37368	262.852
0.375837	263.7
0.378007	264.549
0.380189	265.399
0.382384	266.25
0.384592	267.102
0.386812	267.955
0.389045	268.809
0.391291	269.664
0.39355	270.52
0.395822	271.376
0.398107	272.234
0.400405	273.092
0.402717	273.951
0.405042	274.811
0.40738	275.671
0.409732	276.532
0.412098	277.394
0.414477	278.256
0.416869	279.119
0.419276	279.982
0.421697	280.845
0.424131	281.71
0.42658	282.574
0.429042	283.439
0.431519	284.304
0.43401	285.169
0.436516	286.035
0.439036	286.9
0.44157	287.766
0.44412	288.632
0.446684	289.498
0.449262	290.364
0.451856	291.23
0.454465	292.096
0.457088	292.961
0.459727	293.827
0.462381	294.692
0.46505	295.557
0.467735	296.422
0.470435	297.286
0.473151	298.15
0.475883	299.013
0.47863	299.876
0.481393	300.739
0.484172	301.6
0.486968	302.462
0.489779	303.322
0.492606	304.182
0.49545	305.041
0.49831	305.899
0.501187	306.756
0.504081	307.612
0.506991	308.467
0.509918	309.321
0.512861	310.174
0.515822	311.026
0.5188	311.877
0.521795	312.726
0.524807	313.574
0.527837	314.421
0.530884	315.266
0.533949	316.11
0.537032	316.952
0.540132	317.792
0.54325	318.631
0.546387	319.469
0.549541	320.304
0.552713	321.138
0.555904	321.97
0.559114	322.8
0.562341	323.627
0.565588	324.453
0.568853	325.277
0.572137	326.099
0.57544	326.918
0.578762	327.735
0.582103	328.55
0.585464	329.362
0.588844	330.172
0.592243	330.98
0.595662	331.785
0.599101	332.587
0.60256	333.387
0.606038	334.183
0.609537	334.978
0.613056	335.769
0.616595	336.557
0.620155	337.342
0.623735	338.124
0.627336	338.904
0.630957	339.68
0.6346	340.452
0.638263	341.222
0.641948	341.988
0.645654	342.751
0.649382	343.51
0.653131	344.265
0.656901	345.018
0.660693	345.766
0.664508	346.511
0.668344	347.252
0.672202	347.989
0.676083	348.722
0.679986	349.451
0.683912	350.177
0.68786	350.898
0.691831	351.615
0.695825	352.328
0.699842	353.036
0.703882	353.741
0.707946	354.44
0.712033	355.136
0.716143	355.827
0.720278	356.513
0.724436	357.195
0.728618	357.872
0.732825	358.544
0.737055	359.212
0.74131	359.875
0.74559	360.532
0.749894	361.185
0.754223	361.833
0.758578	362.475
0.762957	363.113
0.767361	363.745
0.771792	364.372
0.776247	364.994
0.780728	365.61
0.785236	366.221
0.789769	366.826
0.794328	367.426
0.798914	368.02
0.803526	368.609
0.808165	369.191
0.812831	369.768
0.817523	370.34
0.822243	370.905
0.82699	371.464
0.831764	372.018
0.836566	372.565
0.841395	373.106
0.846253	373.641
0.851138	374.17
0.856052	374.693
0.860994	375.209
0.865964	375.719
0.870964	376.223
0.875992	376.72
0.881049	377.21
0.886135	377.694
0.891251	378.172
0.896396	378.643
0.901571	379.107
0.906776	379.564
0.912011	380.015
0.917276	380.459
0.922571	380.896
0.927897	381.326
0.933254	381.749
0.938642	382.165
0.944061	382.574
0.949511	382.976
0.954993	383.371
0.960506	383.759
0.966051	384.139
0.971628	384.513
0.977237	384.879
0.982879	385.237
0.988553	385.589
0.99426	385.933
1	386.27
1.00577	386.599
1.01158	386.92
1.01742	387.235
1.02329	387.541
1.0292	387.841
1.03514	388.132
1.04112	388.416
1.04713	388.692
1.05317	388.961
1.05925	389.222
1.06537	389.475
1.07152	389.721
1.07771	389.958
1.08393	390.188
1.09018	390.41
1.09648	390.625
1.10281	390.831
1.10917	391.03
1.11558	391.22
1.12202	391.403
1.1285	391.578
1.13501	391.745
1.14156	391.903
1.14815	392.054
1.15478	392.197
1.16145	392.332
1.16815	392.459
1.1749	392.578
1.18168	392.689
1.1885	392.792
1.19536	392.887
1.20226	392.974
1.20921	393.053
1.21619	393.123
1.22321	393.186
1.23027	393.241
1.23737	393.287
1.24451	393.326
1.2517	393.356
1.25893	393.379
1.26619	393.393
1.2735	393.4
1.28086	393.398
1.28825	393.388
1.29569	393.37
1.30317	393.344
1.31069	393.311
1.31826	393.269
1.32587	393.219
1.33352	393.161
1.34122	393.095
1.34896	393.022
1.35675	392.94
1.36458	392.85
1.37246	392.753
1.38038	392.306
1.38835	392.199
1.39637	392.084
1.40443	391.961
1.41254	391.83
1.42069	391.691
1.42889	391.545
1.43714	391.39
1.44544	391.228
1.45378	391.058
1.46218	390.88
1.47062	390.695
1.47911	390.502
1.48765	390.301
1.49624	390.092
1.50487	389.876
1.51356	389.652
1.5223	389.42
1.53109	389.181
1.53993	388.935
1.54882	388.681
1.55776	388.419
1.56675	388.151
1.5758	387.874
1.58489	387.591
1.59404	387.3
1.60325	387.002
1.6125	386.697
1.62181	386.385
1.63117	386.065
1.64059	385.738
1.65006	385.405
1.65959	385.064
1.66917	384.717
1.6788	384.362
1.6885	384.001
1.69824	383.632
1.70805	383.257
1.71791	382.876
1.72783	382.487
1.7378	382.092
1.74783	381.691
1.75792	381.283
1.76807	380.868
1.77828	380.447
1.78855	380.019
1.79887	379.585
1.80926	379.145
1.8197	378.699
1.83021	378.247
1.84077	377.788
1.8514	377.323
1.86209	376.852
1.87284	376.376
1.88365	375.893
1.89452	375.405
1.90546	374.91
1.91646	374.41
1.92752	373.905
1.93865	373.393
1.94984	372.876
1.9611	372.354
1.97242	371.826
1.98381	371.293
1.99526	370.754
2.00678	370.21
2.01837	369.661
2.03002	369.106
2.04174	368.547
2.05353	367.982
2.06538	367.413
2.0773	366.838
2.0893	366.259
2.10136	365.675
2.11349	365.086
2.12569	364.492
2.13796	363.894
2.1503	363.291
2.16272	362.684
2.1752	362.072
2.18776	361.456
2.20039	360.836
2.21309	360.211
2.22587	359.582
2.23872	358.949
2.25165	358.312
2.26464	357.67
2.27772	357.025
2.29087	356.376
2.30409	355.723
2.31739	355.067
2.33077	354.406
2.34423	353.742
2.35776	353.075
2.37137	352.403
2.38506	351.729
2.39883	351.051
2.41268	350.369
2.42661	349.685
2.44062	348.997
2.45471	348.306
2.46888	347.612
2.48313	346.914
2.49747	346.214
2.51189	345.511
2.52639	344.805
2.54097	344.096
2.55564	343.385
2.5704	342.67
2.58523	341.954
2.60016	341.234
2.61517	340.512
2.63027	339.788
2.64545	339.061
2.66073	338.332
2.67609	337.601
2.69153	336.867
2.70707	336.131
2.7227	335.393
2.73842	334.653
2.75423	333.911
2.77013	333.168
2.78612	332.422
2.80221	331.674
2.81838	330.925
2.83465	330.174
2.85102	329.421
2.86748	328.667
2.88403	327.911
2.90068	327.153
2.91743	326.395
2.93427	325.634
2.95121	324.873
2.96825	324.11
2.98538	323.346
3.00262	322.58
3.01995	321.814
3.03739	321.046
3.05492	320.278
3.07256	319.508
3.0903	318.738
3.10814	317.966
3.12608	317.194
3.14413	316.421
3.16228	315.647
3.18053	314.872
3.1989	314.097
3.21736	313.321
3.23594	312.545
3.25462	311.768
3.27341	310.99
3.2923	310.212
3.31131	309.434
3.33043	308.655
3.34965	307.876
3.36899	307.097
3.38844	306.318
3.408	305.538
3.42768	304.758
3.44747	303.978
3.46737	303.198
3.48739	302.418
3.50752	301.638
3.52777	300.858
3.54813	300.078
3.56862	299.298
3.58922	298.518
3.60994	297.739
3.63078	296.96
3.65174	296.18
3.67282	295.402
3.69403	294.623
3.71535	293.845
3.7368	293.067
3.75837	292.29
3.78007	291.513
3.80189	290.737
3.82384	289.961
3.84592	289.185
3.86812	288.41
3.89045	287.636
3.91291	286.863
3.9355	286.09
3.95822	285.317
3.98107	284.546
4.00405	283.775
4.02717	283.004
4.05042	282.235
4.0738	281.466
4.09732	280.699
4.12098	279.932
4.14477	279.166
4.16869	278.4
4.19276	277.636
4.21697	276.873
4.24131	276.11
4.2658	275.349
4.29042	274.589
4.31519	273.829
4.3401	273.071
4.36516	272.313
4.39036	271.557
4.4157	270.802
4.4412	270.048
4.46684	269.295
4.49262	268.543
4.51856	267.792
4.54465	267.042
4.57088	266.294
4.59727	265.547
4.62381	264.801
4.6505	264.056
4.67735	263.312
4.70435	262.57
4.73151	261.829
4.75883	261.089
4.7863	260.351
4.81393	259.613
4.84172	258.877
4.86968	258.143
4.89779	257.409
4.92606	256.677
4.9545	255.946
4.9831	255.217
5.01187	254.489
5.04081	253.762
5.06991	253.037
5.09918	252.313
5.12861	251.59
5.15822	250.869
5.188	250.149
5.21795	249.431
5.24807	248.714
5.27837	247.998
5.30884	247.284
5.33949	246.571
5.37032	245.86
5.40132	245.15
5.4325	244.441
5.46387	243.734
5.49541	243.028
5.52713	242.324
5.55904	241.621
5.59114	240.92
5.62341	240.22
5.65588	239.521
5.68853	238.824
5.72137	238.128
5.7544	237.434
5.78762	236.741
5.82103	236.049
5.85464	235.359
5.88844	234.671
5.92243	233.984
5.95662	233.298
5.99101	232.614
6.0256	231.931
6.06038	231.25
6.09537	230.57
6.13056	229.891
6.16595	229.214
6.20155	228.538
6.23735	227.864
6.27336	227.191
6.30957	226.519
6.346	225.849
6.38263	225.181
6.41948	224.513
6.45654	223.847
6.49382	223.183
6.53131	222.52
6.56901	221.858
6.60693	221.198
6.64508	220.539
6.68344	219.881
6.72202	219.225
6.76083	218.57
6.79986	217.917
6.83912	217.265
6.8786	216.614
6.91831	215.964
6.95825	215.316
6.99842	214.67
7.03882	214.024
7.07946	213.38
7.12033	212.737
7.16143	212.096
7.20278	211.456
7.24436	210.817
7.28618	210.179
7.32825	209.543
7.37055	208.908
7.4131	208.275
7.4559	207.642
7.49894	207.011
7.54223	206.381
7.58578	205.753
7.62957	205.125
7.67361	204.499
7.71792	203.874
7.76247	203.251
7.80728	202.629
7.85236	202.007
7.89769	201.388
7.94328	200.769
7.98914	200.151
8.03526	199.535
8.08165	198.92
8.12831	198.306
8.17523	197.694
8.22243	197.082
8.2699	196.472
8.31764	195.863
8.36566	195.255
8.41395	194.648
8.46253	194.042
8.51138	193.438
8.56052	192.835
8.60994	192.232
8.65964	191.631
8.70964	191.032
8.75992	190.433
8.81049	189.835
8.86135	189.239
8.91251	188.653
8.96396	188.058
9.01571	187.464
9.06776	186.871
9.12011	186.279
9.17276	185.689
9.22571	185.1
9.27897	184.511
9.33254	183.924
9.38642	183.338
9.44061	182.753
9.49511	182.169
9.54993	181.587
9.60506	181.005
9.66051	180.425
9.71628	179.845
9.77237	179.267
9.82879	178.689
9.88553	178.113
9.9426	177.538
10	176.963
10.0577	176.39
10.1158	175.818
10.1742	175.247
10.2329	174.677
10.292	174.108
10.3514	173.54
10.4112	172.973
10.4713	172.407
10.5317	171.842
10.5925	171.278
10.6537	170.715
10.7152	170.153
10.7771	169.592
10.8393	169.033
10.9018	168.474
10.9648	167.916
11.0281	167.359
11.0917	166.803
11.1558	166.248
11.2202	165.694
11.285	165.141
11.3501	164.589
11.4156	164.038
11.4815	163.488
11.5478	162.939
11.6145	162.391
11.6815	161.844
11.749	161.298
11.8168	160.752
11.885	160.208
11.9536	159.665
12.0226	159.123
12.0921	158.582
12.1619	158.041
12.2321	157.502
12.3027	156.964
12.3737	156.427
12.4451	155.89
12.517	155.355
12.5893	154.82
12.6619	154.287
12.735	153.754
12.8086	153.223
12.8825	152.692
12.9569	152.163
13.0317	151.634
13.1069	151.107
13.1826	150.58
13.2587	150.055
13.3352	149.53
13.4122	149.006
13.4896	148.484
13.5675	147.962
13.6458	147.441
13.7246	146.921
13.8038	146.403
13.8835	145.885
13.9637	145.361
14.0443	144.83
14.1254	144.299
14.2069	143.769
14.2889	143.239
14.3714	142.71
14.4544	142.183
14.5378	141.664
14.6218	141.137
14.7062	140.611
14.7911	140.086
14.8765	139.562
14.9624	139.038
15.0487	138.515
15.1356	137.993
15.223	137.472
15.3109	136.951
15.3993	136.431
15.4882	135.912
15.5776	135.412
15.6675	134.895
15.758	134.384
15.8489	133.868
15.9404	133.353
16.0325	132.839
16.125	132.326
16.2181	131.814
16.3117	131.303
16.4059	130.792
16.5006	130.283
16.5959	129.775
16.6917	129.267
16.788	128.76
16.885	128.255
16.9824	127.75
17.0805	127.32
17.1791	126.817
17.2783	126.314
17.378	125.813
17.4783	125.063
17.5792	124.56
17.6807	124.08
17.7828	123.579
17.8855	123.079
17.9887	122.58
18.0926	122.083
18.197	121.587
18.3021	121.092
18.4077	120.598
18.514	120.105
18.6209	119.613
18.7284	119.123
18.8365	118.633
18.9452	118.145
19.0546	117.658
19.1646	117.172
19.2752	116.687
19.3865	116.203
19.4984	115.721
19.611	115.24
19.7242	114.76
19.8381	114.281
19.9526	113.803
20.0678	113.327
20.1837	112.852
20.3002	112.378
20.4174	111.905
20.5353	111.433
20.6538	110.963
20.773	110.564
20.893	110.096
21.0136	109.629
21.1349	109.163
21.2569	108.699
21.3796	108.236
21.503	107.775
21.6272	107.314
21.752	106.855
21.8776	106.392
22.0039	105.935
22.1309	105.48
22.2587	105.026
22.3872	104.573
22.5165	104.121
22.6464	103.671
22.7772	103.223
22.9087	102.775
23.0409	102.329
23.1739	101.885
23.3077	101.441
23.4423	100.999
23.5776	100.563
23.7137	100.124
23.8506	99.6861
23.9883	99.2497
24.1268	98.8147
24.2661	98.3811
24.4062	97.9488
24.5471	97.5235
24.6888	97.1044
24.8313	96.6863
24.9747	96.2694
25.1189	95.8537
25.2639	95.4393
25.4097	95.0263
25.5564	94.6145
25.704	94.204
25.8523	93.7947
26.0016	93.3868
26.1517	92.9802
26.3027	92.5748
26.4545	92.1708
26.6073	91.7681
26.7609	91.3668
26.9153	90.9667
27.0707	90.568
27.227	90.1706
27.3842	89.7746
27.5423	89.3798
27.7013	88.9865
27.8612	88.5944
28.0221	88.2037
28.1838	87.8144
28.3465	87.4264
28.5102	87.0637
28.6748	86.678
28.8403	86.2936
29.0068	85.9107
29.1743	85.5291
29.3427	85.1488
29.5121	84.7699
29.6825	84.3925
29.8538	84.0164
30.0262	83.6416
30.1995	83.2682
30.3739	82.8962
30.5492	82.5256
30.7256	82.1563
30.903	81.7885
31.0814	81.4221
31.2608	81.1117
31.4413	80.7474
31.6228	80.3844
31.8053	80.0229
31.989	79.6627
32.1736	79.3039
32.3594	78.9466
32.5462	78.5906
32.7341	78.236
32.923	77.8827
33.1131	77.5309
33.3043	77.1805
33.4965	76.8314
33.6899	76.4838
33.8844	76.1375
34.08	75.7926
34.2768	75.4491
34.4747	75.107
34.6737	74.7662
34.8739	74.4269
35.0752	74.0889
35.2777	73.7523
35.4813	73.417
35.6862	73.0831
35.8922	72.7506
36.0994	72.4195
36.3078	72.0897
36.5174	71.7613
36.7282	71.4342
36.9403	71.1085
37.1535	70.7842
37.368	70.4612
37.5837	70.1395
37.8007	69.8192
38.0189	69.5003
38.2384	69.1826
38.4592	68.8664
38.6812	68.5514
38.9045	68.2379
39.1291	67.9256
39.355	67.6146
39.5822	67.3063
39.8107	66.998
40.0405	66.7052
40.2717	66.3992
40.5042	66.0946
40.738	65.7913
40.9732	65.4893
41.2098	65.1885
41.4477	64.8891
41.6869	64.591
41.9276	64.2942
42.1697	63.9987
42.4131	63.7044
42.658	63.4114
42.9042	63.1197
43.1519	62.8293
43.401	62.5401
43.6516	62.2522
43.9036	61.9656
44.157	61.6802
44.412	61.396
44.6684	61.1132
44.9262	60.8315
45.1856	60.5511
45.4465	60.2719
45.7088	59.994
45.9727	59.7173
46.2381	59.4418
46.505	59.1675
46.7735	58.8945
47.0435	58.6227
47.3151	58.352
47.5883	58.0826
47.863	57.8144
48.1393	57.5473
48.4172	57.2815
48.6968	57.0168
48.9779	56.7534
49.2606	56.4911
49.545	56.23
49.831	55.9701
50.1187	55.7113
50.4081	55.4536
50.6991	55.1972
50.9918	54.9419
51.2861	54.6877
51.5822	54.4347
51.88	54.1828
52.1795	53.932
52.4807	53.6995
52.7837	53.4507
53.0884	53.203
53.3949	52.9564
53.7032	52.711
54.0132	52.4666
54.325	52.2234
54.6387	51.9812
54.9541	51.7402
55.2713	51.5002
55.5904	51.2622
55.9114	51.0243
56.2341	50.7876
56.5588	50.552
56.8853	50.3174
57.2137	50.0839
57.544	49.8515
57.8762	49.6201
58.2103	49.3898
58.5464	49.1606
58.8844	48.9324
59.2243	48.7053
59.5662	48.4791
59.9101	48.254
60.256	48.03
60.6038	47.8069
60.9537	47.5849
61.3056	47.3638
61.6595	47.1438
62.0155	46.9248
62.3735	46.7068
62.7336	46.4898
63.0957	46.2737
63.46	46.0587
63.8263	45.8446
64.1948	45.6315
64.5654	45.4193
64.9382	45.2082
65.3131	44.998
65.6901	44.7888
66.0693	44.5805
66.4508	44.3732
66.8344	44.1668
67.2202	43.9614
67.6083	43.7569
67.9986	43.5533
68.3912	43.3507
68.786	43.149
69.1831	42.9482
69.5825	42.7484
69.9842	42.5494
70.3882	42.3514
70.7946	42.1543
71.2033	41.9581
71.6143	41.7628
72.0278	41.5683
72.4436	41.3748
72.8618	41.1822
73.2825	40.9904
73.7055	40.8098
74.131	40.6196
74.559	40.4304
74.9894	40.242
75.4223	40.0544
75.8578	39.8677
76.2957	39.6819
76.7361	39.4969
77.1792	39.3128
77.6247	39.1295
78.0728	38.9471
78.5236	38.7655
78.9769	38.5848
79.4328	38.4049
79.8914	38.2258
80.3526	38.0475
80.8165	37.8701
81.2831	37.6934
81.7523	37.5176
82.2243	37.3426
82.699	37.1684
83.1764	36.9951
83.6566	36.8225
84.1395	36.6507
84.6253	36.4797
85.1138	36.3095
85.6052	36.1401
86.0994	35.9714
86.5964	35.8036
87.0964	35.6365
87.5992	35.4702
88.1049	35.3047
88.6135	35.1399
89.1251	34.9759
89.6396	34.8126
90.1571	34.6501
90.6776	34.4884
91.2011	34.3274
91.7276	34.1671
92.2571	34.0076
92.7897	33.8489
93.3254	33.6908
93.8642	33.5335
94.4061	33.3769
94.9511	33.2211
95.4993	33.066
96.0506	32.9115
96.6051	32.7579
97.1628	32.6049
97.7237	32.4526
98.2879	32.301
98.8553	32.1502
99.426	32
100	31.8506
100.577	31.7018
101.158	31.5537
101.742	31.4063
102.329	31.2596
102.92	31.1136
103.514	30.9683
104.112	30.8236
104.713	30.6796
105.317	30.5362
105.925	30.3936
106.537	30.2516
107.152	30.1103
107.771	29.9697
108.393	29.8297
109.018	29.6903
109.648	29.5516
110.281	29.4136
110.917	29.2762
111.558	29.1394
112.202	29.0033
112.85	28.8678
113.501	28.7329
114.156	28.5987
114.815	28.465
115.478	28.332
116.145	28.1997
116.815	28.0679
117.49	27.9368
118.168	27.8062
118.85	27.6763
119.536	27.547
120.226	27.4183
120.921	27.2902
121.619	27.1627
122.321	27.0357
123.027	26.9094
123.737	26.7836
124.451	26.6585
125.17	26.5339
125.893	26.4099
126.619	26.2865
127.35	26.1637
128.086	26.0414
128.825	25.9197
129.569	25.7986
130.317	25.678
131.069	25.558
131.826	25.4386
132.587	25.3197
133.352	25.2014
134.122	25.0836
134.896	24.9664
135.675	24.8497
136.458	24.7336
137.246	24.618
138.038	24.503
138.835	24.3885
139.637	24.2745
140.443	24.1611
141.254	24.0482
142.069	23.9358
142.889	23.8239
143.714	23.7126
144.544	23.6018
145.378	23.4915
146.218	23.3818
147.062	23.2725
147.911	23.1638
148.765	23.0556
149.624	22.9479
150.487	22.8407
151.356	22.734
152.23	22.6278
153.109	22.5221
153.993	22.4169
154.882	22.3121
155.776	22.2079
156.675	22.1042
157.58	22.001
158.489	21.8982
159.404	21.7959
160.325	21.6941
161.25	21.5928
162.181	21.492
163.117	21.3917
164.059	21.2918
165.006	21.1924
165.959	21.0934
166.917	20.9949
167.88	20.8969
168.85	20.7994
169.824	20.7023
170.805	20.6057
171.791	20.5095
172.783	20.4138
173.78	20.3185
174.783	20.2237
175.792	20.1293
176.807	20.0354
177.828	19.9419
178.855	19.8489
179.887	19.7563
180.926	19.6641
181.97	19.5724
183.021	19.4812
184.077	19.3903
185.14	19.2999
186.209	19.2099
187.284	19.1204
188.365	19.0312
189.452	18.9425
190.546	18.8542
191.646	18.7664
192.752	18.6789
193.865	18.5919
194.984	18.5053
196.11	18.419
197.242	18.3332
198.381	18.2479
199.526	18.1629
200.678	18.0783
201.837	17.9941
203.002	17.9103
204.174	17.8269
205.353	17.744
206.538	17.6614
207.73	17.5792
208.93	17.4974
210.136	17.416
211.349	17.3349
212.569	17.2543
213.796	17.1741
215.03	17.0942
216.272	17.0147
217.52	16.9356
218.776	16.8569
220.039	16.7785
221.309	16.7006
222.587	16.623
223.872	16.5457
225.165	16.4689
226.464	16.3924
227.772	16.3163
229.087	16.2405
230.409	16.1651
231.739	16.0901
233.077	16.0154
234.423	15.9411
235.776	15.8671
237.137	15.7935
238.506	15.7203
239.883	15.6474
241.268	15.5748
242.661	15.5026
244.062	15.4308
245.471	15.3592
246.888	15.2881
248.313	15.2173
249.747	15.1468
251.189	15.0766
252.639	15.0068
254.097	14.9374
255.564	14.8682
257.04	14.7994
258.523	14.731
260.016	14.6628
261.517	14.595
263.027	14.5275
264.545	14.4604
266.073	14.3935
267.609	14.327
269.153	14.2608
270.707	14.1949
272.27	14.1294
273.842	14.0641
275.423	13.9992
277.013	13.9346
278.612	13.8703
280.221	13.8063
281.838	13.7427
283.465	13.6793
285.102	13.6162
286.748	13.5535
288.403	13.491
290.068	13.4289
291.743	13.367
293.427	13.3055
295.121	13.2442
296.825	13.1833
298.538	13.1226
300.262	13.0623
301.995	13.0022
303.739	12.9424
305.492	12.8829
307.256	12.8237
309.03	12.7648
310.814	12.7062
312.608	12.6479
314.413	12.5898
316.228	12.532
318.053	12.4746
319.89	12.4173
321.736	12.3604
323.594	12.3038
325.462	12.2474
327.341	12.1913
329.23	12.1354
331.131	12.0799
333.043	12.0246
334.965	11.9696
336.899	11.9148
338.844	11.8604
340.8	11.8061
342.768	11.7522
344.747	11.6985
346.737	11.6451
348.739	11.5919
350.752	11.539
352.777	11.4864
354.813	11.434
356.862	11.3818
358.922	11.33
360.994	11.2784
363.078	11.227
365.174	11.1759
367.282	11.125
369.403	11.0744
371.535	11.024
373.68	10.9739
375.837	10.924
378.007	10.8744
380.189	10.825
382.384	10.7759
384.592	10.727
386.812	10.6783
389.045	10.6299
391.291	10.5817
393.55	10.5337
395.822	10.486
398.107	10.4385
400.405	10.3913
402.717	10.3443
405.042	10.2975
407.38	10.251
409.732	10.2046
412.098	10.1586
414.477	10.1127
416.869	10.0671
419.276	10.0216
421.697	9.97645
424.131	9.93148
426.58	9.88674
429.042	9.84222
431.519	9.79792
434.01	9.75383
436.516	9.70997
439.036	9.66632
441.57	9.62289
444.12	9.57967
446.684	9.53667
449.262	9.49388
451.856	9.4513
454.465	9.40893
457.088	9.36677
459.727	9.32483
462.381	9.28309
465.05	9.24155
467.735	9.20023
470.435	9.1591
473.151	9.11819
475.883	9.07747
478.63	9.03696
481.393	8.99665
484.172	8.95654
486.968	8.91663
489.779	8.87692
492.606	8.8374
495.45	8.79808
498.31	8.75896
501.187	8.72003
504.081	8.6813
506.991	8.64276
509.918	8.60441
512.861	8.56626
515.822	8.52829
518.8	8.49051
521.795	8.45292
524.807	8.41552
527.837	8.37831
530.884	8.34128
533.949	8.30444
537.032	8.26778
540.132	8.2313
543.25	8.19501
546.387	8.1589
549.541	8.12297
552.713	8.08722
555.904	8.05165
559.114	8.01625
562.341	7.98104
565.588	7.946
568.853	7.91113
572.137	7.87644
575.44	7.84193
578.762	7.80759
582.103	7.77342
585.464	7.73942
588.844	7.70559
592.243	7.67194
595.662	7.63845
599.101	7.60513
602.56	7.57198
606.038	7.539
609.537	7.50618
613.056	7.47353
616.595	7.44104
620.155	7.40871
623.735	7.37655
627.336	7.34455
630.957	7.31271
634.6	7.28104
638.263	7.24952
641.948	7.21816
645.654	7.18696
649.382	7.15592
653.131	7.12503
656.901	7.09431
660.693	7.06373
664.508	7.03331
668.344	7.00305
672.202	6.97294
676.083	6.94298
679.986	6.91317
683.912	6.88352
687.86	6.85401
691.831	6.82466
695.825	6.79545
699.842	6.76639
703.882	6.73748
707.946	6.70872
712.033	6.6801
716.143	6.65163
720.278	6.6233
724.436	6.59512
728.618	6.56708
732.825	6.53918
737.055	6.51143
741.31	6.48381
745.59	6.45634
749.894	6.42901
754.223	6.40181
758.578	6.37476
762.957	6.34784
767.361	6.32107
771.792	6.29442
776.247	6.26792
780.728	6.24155
785.236	6.21531
789.769	6.18921
794.328	6.16325
798.914	6.13741
803.526	6.11171
808.165	6.08614
812.831	6.0607
817.523	6.03539
822.243	6.01021
826.99	5.98517
831.764	5.96024
836.566	5.93545
841.395	5.91079
846.253	5.88625
851.138	5.86184
856.052	5.83755
860.994	5.81339
865.964	5.78935
870.964	5.76544
875.992	5.74165
881.049	5.71798
886.135	5.69444
891.251	5.67102
896.396	5.64771
901.571	5.62453
906.776	5.60147
912.011	5.57853
917.276	5.5557
922.571	5.533
927.897	5.51041
933.254	5.48794
938.642	5.46558
944.061	5.44334
949.511	5.42122
954.993	5.39921
960.506	5.37731
966.051	5.35553
971.628	5.33386
977.237	5.31231
982.879	5.29087
988.553	5.26953
994.26	5.24831
1000	5.2272
1005.77	5.2062
1011.58	5.18531
1017.42	5.16453
1023.29	5.14386
1029.2	5.12329
1035.14	5.10284
1041.12	5.08249
1047.13	5.06224
1053.17	5.0421
1059.25	5.02207
1065.37	5.00214
1071.52	4.98232
1077.71	4.9626
1083.93	4.94298
1090.18	4.92347
1096.48	4.90406
1102.81	4.88475
1109.17	4.86554
1115.58	4.84643
1122.02	4.82743
1128.5	4.80852
1135.01	4.78971
1141.56	4.77101
1148.15	4.7524
1154.78	4.73389
1161.45	4.71547
1168.15	4.69716
1174.9	4.67894
1181.68	4.66082
1188.5	4.64279
1195.36	4.62486
1202.26	4.60702
1209.21	4.58928
1216.19	4.57163
1223.21	4.55408
1230.27	4.53661
1237.37	4.51925
1244.51	4.50197
1251.7	4.48478
1258.93	4.46769
1266.19	4.45069
1273.5	4.43378
1280.86	4.41696
1288.25	4.40022
1295.69	4.38358
1303.17	4.36703
1310.69	4.35056
1318.26	4.33418
1325.87	4.31789
1333.52	4.30169
1341.22	4.28558
1348.96	4.26955
1356.75	4.2536
1364.58	4.23774
1372.46	4.22197
1380.38	4.20628
1388.35	4.19068
1396.37	4.17516
1404.43	4.15972
1412.54	4.14437
1420.69	4.1291
1428.89	4.11391
1437.14	4.0988
1445.44	4.08378
1453.78	4.06884
1462.18	4.05397
1470.62	4.03919
1479.11	4.02449
1487.65	4.00987
1496.24	3.99532
1504.87	3.98086
1513.56	3.96647
1522.3	3.95216
1531.09	3.93793
1539.93	3.92378
1548.82	3.90971
1557.76	3.89571
1566.75	3.88178
1575.8	3.86794
1584.89	3.85417
1594.04	3.84047
1603.25	3.82685
1612.5	3.8133
1621.81	3.79983
1631.17	3.78643
1640.59	3.77311
1650.06	3.75986
1659.59	3.74668
1669.17	3.73357
1678.8	3.72054
1688.5	3.70758
1698.24	3.69469
1708.05	3.68187
1717.91	3.66912
1727.83	3.65644
1737.8	3.64383
1747.83	3.63129
1757.92	3.61882
1768.07	3.60642
1778.28	3.59409
1788.55	3.58183
1798.87	3.56963
1809.26	3.55751
1819.7	3.54545
1830.21	3.53346
1840.77	3.52153
1851.4	3.50967
1862.09	3.49788
1872.84	3.48615
1883.65	3.47449
1894.52	3.4629
1905.46	3.45137
1916.46	3.4399
1927.52	3.4285
1938.65	3.41716
1949.84	3.40589
1961.1	3.39468
1972.42	3.38353
1983.81	3.37245
1995.26	3.36143
2006.78	3.35047
2018.37	3.33957
2030.02	3.32874
2041.74	3.31797
2053.53	3.30725
2065.38	3.2966
2077.3	3.28601
2089.3	3.27548
2101.36	3.26501
2113.49	3.2546
2125.69	3.24425
2137.96	3.23396
2150.3	3.22372
2162.72	3.21355
2175.2	3.20343
2187.76	3.19338
2200.39	3.18338
2213.09	3.17343
2225.87	3.16355
2238.72	3.15372
2251.65	3.14395
2264.64	3.13424
2277.72	3.12458
2290.87	3.11497
2304.09	3.10543
2317.39	3.09594
2330.77	3.0865
2344.23	3.07712
2357.76	3.06779
2371.37	3.05852
2385.06	3.0493
2398.83	3.04014
2412.68	3.03103
2426.61	3.02197
2440.62	3.01297
2454.71	3.00402
2468.88	2.99512
2483.13	2.98627
2497.47	2.97748
2511.89	2.96874
2526.39	2.96005
2540.97	2.95141
2555.64	2.94282
2570.4	2.93429
2585.23	2.9258
2600.16	2.91737
2615.17	2.90898
2630.27	2.90065
2645.45	2.89236
2660.73	2.88413
2676.09	2.87594
2691.53	2.8678
2707.07	2.85972
2722.7	2.85168
2738.42	2.84369
2754.23	2.83575
2770.13	2.82785
2786.12	2.82
2802.21	2.81221
2818.38	2.80445
2834.65	2.79675
2851.02	2.78909
2867.48	2.78148
2884.03	2.77392
2900.68	2.7664
2917.43	2.75893
2934.27	2.7515
2951.21	2.74412
2968.25	2.73679
2985.38	2.7295
3002.62	2.72225
3019.95	2.71505
3037.39	2.7079
3054.92	2.70079
3072.56	2.69372
3090.3	2.6867
3108.14	2.67972
3126.08	2.67278
3144.13	2.66589
3162.28	2.65904
3180.53	2.65224
3198.9	2.64547
3217.36	2.63875
3235.94	2.63208
3254.62	2.62544
3273.41	2.61885
3292.3	2.6123
3311.31	2.60579
3330.43	2.59932
3349.65	2.59289
3368.99	2.5865
3388.44	2.58016
3408	2.57385
3427.68	2.56759
3447.47	2.56136
3467.37	2.55518
3487.39	2.54904
3507.52	2.54293
3527.77	2.53687
3548.13	2.53084
3568.62	2.52486
3589.22	2.51891
3609.94	2.513
3630.78	2.50713
3651.74	2.5013
3672.82	2.49551
3694.03	2.48976
3715.35	2.48404
3736.8	2.47836
3758.37	2.47272
3780.07	2.46712
3801.89	2.46155
3823.84	2.45602
3845.92	2.45053
3868.12	2.44508
3890.45	2.43966
3912.91	2.43428
3935.5	2.42893
3958.22	2.42362
3981.07	2.41835
4004.05	2.41311
4027.17	2.40791
4050.42	2.40274
4073.8	2.39761
4097.32	2.39251
4120.98	2.38745
4144.77	2.38243
4168.69	2.37744
4192.76	2.37248
4216.97	2.36756
4241.31	2.36267
4265.8	2.35781
4290.42	2.35299
4315.19	2.34821
4340.1	2.34345
4365.16	2.33873
4390.36	2.33405
4415.7	2.3294
4441.2	2.32478
4466.84	2.32019
4492.62	2.31563
4518.56	2.31111
4544.65	2.30662
4570.88	2.30217
4597.27	2.29774
4623.81	2.29335
4650.5	2.28899
4677.35	2.28466
4704.35	2.28036
4731.51	2.27609
4758.83	2.27186
4786.3	2.26765
4813.93	2.26348
4841.72	2.25934
4869.68	2.25523
4897.79	2.25115
4926.06	2.2471
4954.5	2.24308
4983.1	2.23909
5011.87	2.23513
5040.81	2.2312
5069.91	2.2273
5099.18	2.22343
5128.61	2.21958
5158.22	2.21577
5188	2.21199
5217.95	2.20824
5248.07	2.20451
5278.37	2.20082
5308.84	2.19715
5339.49	2.19351
5370.32	2.1899
5401.32	2.18632
5432.5	2.18276
5463.87	2.17924
5495.41	2.17574
5527.13	2.17227
5559.04	2.16883
5591.14	2.16542
5623.41	2.16203
5655.88	2.15867
5688.53	2.15534
5721.37	2.15203
5754.4	2.14875
5787.62	2.1455
5821.03	2.14228
5854.64	2.13908
5888.44	2.1359
5922.43	2.13276
5956.62	2.12964
5991.01	2.12655
6025.6	2.12348
6060.38	2.12044
6095.37	2.11742
6130.56	2.11443
6165.95	2.11147
6201.55	2.10853
6237.35	2.10561
6273.36	2.10272
6309.57	2.09986
6346	2.09702
6382.63	2.09421
6419.48	2.09142
6456.54	2.08865
6493.82	2.08591
6531.31	2.0832
6569.01	2.08051
6606.93	2.07784
6645.08	2.0752
6683.44	2.07258
6722.02	2.06998
6760.83	2.06741
6799.86	2.0647
6839.12	2.06195
6878.6	2.05923
6918.31	2.05653
6958.25	2.05385
6998.42	2.05119
7038.82	2.04856
7079.46	2.04595
7120.33	2.04336
7161.43	2.04079
7202.78	2.03825
7244.36	2.03572
7286.18	2.03322
7328.25	2.03074
7370.55	2.02829
7413.1	2.02585
7455.9	2.02344
7498.94	2.02105
7542.23	2.01868
7585.78	2.01633
7629.57	2.014
7673.61	2.01169
7717.92	2.0094
7762.47	2.00714
7807.28	2.00489
7852.36	2.00267
7897.69	2.00047
7943.28	1.99828
7989.14	1.99612
8035.26	1.99398
8081.65	1.99186
8128.31	1.98975
8175.23	1.98767
8222.43	1.98561
8269.9	1.98357
8317.64	1.98154
8365.66	1.97954
8413.95	1.97756
8462.53	1.97559
8511.38	1.97365
8560.52	1.97172
8609.94	1.96981
8659.64	1.96792
8709.64	1.96605
8759.92	1.9642
8810.49	1.96237
8861.35	1.96056
8912.51	1.95876
8963.96	1.95699
9015.71	1.95523
9067.76	1.95349
9120.11	1.95177
9172.76	1.95007
9225.71	1.94838
9278.97	1.94671
9332.54	1.94506
9386.42	1.94343
9440.61	1.94181
9495.11	1.94022
9549.93	1.93864
9605.06	1.93708
9660.51	1.93553
9716.28	1.934
9772.37	1.93249
9828.79	1.931
9885.53	1.92952
9942.6	1.92806
10000	1.92662
10057.7	1.92519
10115.8	1.92378
10174.2	1.92238
10232.9	1.92101
10292	1.91965
10351.4	1.9183
10411.2	1.91697
10471.3	1.91566
10531.7	1.91436
10592.5	1.91308
10653.7	1.91182
10715.2	1.91057
10777.1	1.90933
10839.3	1.90811
10901.8	1.90691
10964.8	1.90572
11028.1	1.90455
11091.7	1.90339
11155.8	1.90225
11220.2	1.90112
11285	1.90001
11350.1	1.89891
11415.6	1.89783
11481.5	1.89676
11547.8	1.89571
11614.5	1.89467
11681.5	1.89365
11749	1.89264
11816.8	1.89165
11885	1.89066
11953.6	1.8897
12022.6	1.88874
12092.1	1.88781
12161.9	1.88688
12232.1	1.88597
12302.7	1.88507
12373.7	1.88419
12445.1	1.88332
12517	1.88247
12589.3	1.88162
12661.9	1.88079
12735	1.87998
12808.6	1.87918
12882.5	1.87839
12956.9	1.87761
13031.7	1.87685
13106.9	1.8761
13182.6	1.87536
13258.7	1.87464
13335.2	1.87392
13412.2	1.87323
13489.6	1.87254
13567.5	1.87187
13645.8	1.8712
13724.6	1.87056
13803.8	1.86992
13883.5	1.86929
13963.7	1.86868
14044.3	1.86808
14125.4	1.8675
14206.9	1.86692
14288.9	1.86636
14371.4	1.8658
14454.4	1.86526
14537.8	1.86473
14621.8	1.86422
14706.2	1.86371
14791.1	1.86322
14876.5	1.86274
14962.4	1.86227
15048.7	1.86181
15135.6	1.86136
15223	1.86092
15310.9	1.86049
15399.3	1.86008
15488.2	1.85967
15577.6	1.85928
15667.5	1.8589
15758	1.85853
15848.9	1.85817
15940.4	1.85782
16032.5	1.85748
16125	1.85715
16218.1	1.85683
16311.7	1.85652
16405.9	1.85622
16500.6	1.85594
16595.9	1.85566
16691.7	1.85539
16788	1.85513
16885	1.85489
16982.4	1.85465
17080.5	1.85442
17179.1	1.8542
17278.3	1.854
17378	1.8538
17478.3	1.85361
17579.2	1.85343
17680.7	1.85326
17782.8	1.8531
17885.5	1.85295
17988.7	1.85281
18092.6	1.85268
18197	1.85256
18302.1	1.85245
18407.7	1.85234
18514	1.85225
18620.9	1.85216
18728.4	1.85208
18836.5	1.85202
18945.2	1.85196
19054.6	1.85191
19164.6	1.85187
19275.2	1.85183
19386.5	1.85181
19498.4	1.85179
19611	1.85179
19724.2	1.85179
19838.1	1.8518
19952.6	1.85181
20067.8	1.85184
20183.7	1.85187
20300.2	1.85192
20417.4	1.85197
20535.3	1.85203
20653.8	1.85209
20773	1.85217
20893	1.85225
21013.6	1.85234
21134.9	1.85244
21256.9	1.85255
21379.6	1.85266
21503	1.85278
21627.2	1.85291
21752	1.85305
21877.6	1.85319
22003.9	1.85334
22130.9	1.8535
22258.7	1.85367
22387.2	1.85384
22516.5	1.85402
22646.4	1.85421
22777.2	1.85441
22908.7	1.85461
23040.9	1.85482
23173.9	1.85503
23307.7	1.85526
23442.3	1.85549
23577.6	1.85572
23713.7	1.85597
23850.6	1.85622
23988.3	1.85648
24126.8	1.85674
24266.1	1.85701
24406.2	1.85729
24547.1	1.85757
24688.8	1.85786
24831.3	1.85816
24974.7	1.85846
25118.9	1.85877
25263.9	1.85909
25409.7	1.85941
25556.4	1.85974
25704	1.86007
25852.3	1.86041
26001.6	1.86076
26151.7	1.86111
26302.7	1.86147
26454.5	1.86183
26607.3	1.8622
26760.9	1.86258
26915.3	1.86296
27070.7	1.86335
27227	1.86374
27384.2	1.86414
27542.3	1.86454
27701.3	1.86495
27861.2	1.86537
28022.1	1.86579
28183.8	1.86622
28346.5	1.86665
28510.2	1.86709
28674.8	1.86753
28840.3	1.86798
29006.8	1.86843
29174.3	1.86889
29342.7	1.86935
29512.1	1.86982
29682.5	1.87029
29853.8	1.87077
30026.2	1.87126
30199.5	1.87175
30373.9	1.87224
30549.2	1.87274
30725.6	1.87324
30903	1.87375
31081.4	1.87427
31260.8	1.87478
31441.3	1.87531
31622.8	1.87583
31805.3	1.87637
31989	1.8769
32173.6	1.87744
32359.4	1.87799
32546.2	1.87854
32734.1	1.87909
32923	1.87965
33113.1	1.88022
33304.3	1.88078
33496.5	1.88136
33689.9	1.88193
33884.4	1.88251
34080	1.8831
34276.8	1.88369
34474.7	1.88428
34673.7	1.88488
34873.9	1.88548
35075.2	1.88608
35277.7	1.88669
35481.3	1.88731
35686.2	1.88792
35892.2	1.88855
36099.4	1.88917
36307.8	1.8898
36517.4	1.89043
36728.2	1.89107
36940.3	1.89171
37153.5	1.89235
37368	1.893
37583.7	1.89365
37800.7	1.89431
38018.9	1.89496
38238.4	1.89563
38459.2	1.89629
38681.2	1.89696
38904.5	1.89763
39129.1	1.89831
39355	1.89899
39582.2	1.89967
39810.7	1.90036
40040.5	1.90105
40271.7	1.90174
40504.2	1.90243
40738	1.90313
40973.2	1.90384
41209.8	1.90454
41447.7	1.90525
41686.9	1.90596
41927.6	1.90668
42169.7	1.90739
42413.1	1.90811
42658	1.90884
42904.2	1.90956
43151.9	1.91029
43401	1.91103
43651.6	1.91176
43903.6	1.9125
44157	1.91324
44412	1.91398
44668.4	1.91473
44926.2	1.91548
45185.6	1.91623
45446.5	1.91699
45708.8	1.91775
45972.7	1.91851
46238.1	1.91927
46505	1.92003
46773.5	1.9208
47043.5	1.92157
47315.1	1.92235
47588.3	1.92312
47863	1.9239
48139.3	1.92468
48417.2	1.92546
48696.8	1.92625
48977.9	1.92704
49260.6	1.92783
49545	1.92862
49831	1.92941
50118.7	1.93021
50408.1	1.93101
50699.1	1.93181
50991.8	1.93261
51286.1	1.93342
51582.2	1.93423
51880	1.93504
52179.5	1.93585
52480.7	1.93666
52783.7	1.93748
53088.4	1.9383
53394.9	1.93912
53703.2	1.93994
54013.2	1.94077
54325	1.94159
54638.7	1.94242
54954.1	1.94325
55271.3	1.94409
55590.4	1.94492
55911.4	1.94576
56234.1	1.94659
56558.8	1.94743
56885.3	1.94828
57213.7	1.94912
57544	1.94996
57876.2	1.95081
58210.3	1.95166
58546.4	1.95251
58884.4	1.95336
59224.3	1.95422
59566.2	1.95507
59910.1	1.95593
60256	1.95679
60603.8	1.95765
60953.7	1.95851
61305.6	1.95938
61659.5	1.96024
62015.5	1.96111
62373.5	1.96198
62733.6	1.96284
63095.7	1.96372
63460	1.96459
63826.3	1.96546
64194.8	1.96634
64565.4	1.96722
64938.2	1.96809
65313.1	1.96897
65690.1	1.96986
66069.3	1.97074
66450.8	1.97162
66834.4	1.97251
67220.2	1.97339
67608.3	1.97428
67998.6	1.97517
68391.2	1.97606
68786	1.97695
69183.1	1.97784
69582.5	1.97874
69984.2	1.97963
70388.2	1.98053
70794.6	1.98143
71203.3	1.98233
71614.3	1.98323
72027.8	1.98413
72443.6	1.98503
72861.8	1.98593
73282.5	1.98684
73705.5	1.98774
74131	1.98865
74559	1.98956
74989.4	1.99046
75422.3	1.99137
75857.8	1.99228
76295.7	1.99319
76736.1	1.99411
77179.2	1.99502
77624.7	1.99593
78072.8	1.99685
78523.6	1.99777
78976.9	1.99868
79432.8	1.9996
79891.4	2.00052
80352.6	2.00144
80816.5	2.00236
81283.1	2.00328
81752.3	2.0042
82224.3	2.00513
82699	2.00605
83176.4	2.00697
83656.6	2.0079
84139.5	2.00883
84625.3	2.00975
85113.8	2.01068
85605.2	2.01161
86099.4	2.01254
86596.4	2.01347
87096.4	2.0144
87599.2	2.01533
88104.9	2.01626
88613.5	2.01719
89125.1	2.01813
89639.6	2.01906
90157.1	2.01999
90677.6	2.02093
91201.1	2.02187
91727.6	2.0228
92257.1	2.02374
92789.7	2.02468
93325.4	2.02561
93864.2	2.02655
94406.1	2.02749
94951.1	2.02843
95499.3	2.02937
96050.6	2.03031
96605.1	2.03125
97162.8	2.0322
97723.7	2.03314
98287.9	2.03408
98855.3	2.03503
99426	2.03597
100000	2.03691
100577	2.03786
101158	2.0388
101742	2.03975
102329	2.04069
102920	2.04164
103514	2.04259
104112	2.04354
104713	2.04448
105317	2.04543
105925	2.04638
106537	2.04733
107152	2.04828
107771	2.04923
108393	2.05018
109018	2.05113
109648	2.05208
110281	2.05303
110917	2.05398
111558	2.05493
112202	2.05588
112850	2.05683
113501	2.05779
114156	2.05874
114815	2.05969
115478	2.06064
116145	2.0616
116815	2.06255
117490	2.06351
118168	2.06446
118850	2.06541
119536	2.06637
120226	2.06732
120921	2.06828
121619	2.06923
122321	2.07019
123027	2.07114
123737	2.0721
124451	2.07306
125170	2.07401
125893	2.07497
126619	2.07592
127350	2.07688
128086	2.07784
128825	2.07879
129569	2.07975
130317	2.08071
131069	2.08166
131826	2.08262
132587	2.08358
133352	2.08454
134122	2.08549
134896	2.08645
135675	2.08741
136458	2.08837
137246	2.08933
138038	2.09028
138835	2.09124
139637	2.0922
140443	2.09316
141254	2.09412
142069	2.09507
142889	2.09603
143714	2.09699
144544	2.09795
145378	2.09891
146218	2.09987
147062	2.10082
147911	2.10178
148765	2.10274
149624	2.1037
150487	2.10466
151356	2.10562
152230	2.10657
153109	2.10753
153993	2.10849
154882	2.10945
155776	2.11041
156675	2.11136
157580	2.11232
158489	2.11328
159404	2.11424
160325	2.1152
161250	2.11615
162181	2.11711
163117	2.11807
164059	2.11903
165006	2.11999
165959	2.12094
166917	2.1219
167880	2.12286
168850	2.12382
169824	2.12477
170805	2.12573
171791	2.12669
172783	2.12764
173780	2.1286
174783	2.12956
175792	2.13051
176807	2.13147
177828	2.13243
178855	2.13338
179887	2.13434
180926	2.13529
181970	2.13625
183021	2.13721
184077	2.13816
185140	2.13912
186209	2.14007
187284	2.14103
188365	2.14198
189452	2.14294
190546	2.14389
191646	2.14485
192752	2.1458
193865	2.14675
194984	2.14771
196110	2.14866
197242	2.14962
198381	2.15057
199526	2.15152
200678	2.15248
201837	2.15343
203002	2.15438
204174	2.15533
205353	2.15629
206538	2.15724
207730	2.15819
208930	2.15914
210136	2.16009
211349	2.16104
212569	2.16199
213796	2.16295
215030	2.1639
216272	2.16485
217520	2.1658
218776	2.16675
220039	2.1677
221309	2.16865
222587	2.16959
223872	2.17054
225165	2.17149
226464	2.17244
227772	2.17339
229087	2.17434
230409	2.17528
231739	2.17623
233077	2.17718
234423	2.17813
235776	2.17907
237137	2.18002
238506	2.18097
239883	2.18191
241268	2.18286
242661	2.1838
244062	2.18475
245471	2.18569
246888	2.18664
248313	2.18758
249747	2.18853
251189	2.18947
252639	2.19041
254097	2.19136
255564	2.1923
257040	2.19324
258523	2.19419
260016	2.19513
261517	2.19607
263027	2.19701
264545	2.19795
266073	2.19889
267609	2.19983
269153	2.20078
270707	2.20172
272270	2.20266
273842	2.20359
275423	2.20453
277013	2.20547
278612	2.20641
280221	2.20735
281838	2.20829
283465	2.20923
285102	2.21016
286748	2.2111
288403	2.21204
290068	2.21297
291743	2.21391
293427	2.21485
295121	2.21578
296825	2.21672
298538	2.21765
300262	2.21859
301995	2.21952
303739	2.22045
305492	2.22139
307256	2.22232
309030	2.22325
310814	2.22419
312608	2.22512
314413	2.22605
316228	2.22698
318053	2.22792
319890	2.22885
321736	2.22978
323594	2.23071
325462	2.23164
327341	2.23257
329230	2.2335
331131	2.23443
333043	2.23535
334965	2.23628
336899	2.23721
338844	2.23814
340800	2.23907
342768	2.23999
344747	2.24092
346737	2.24185
348739	2.24277
350752	2.2437
352777	2.24462
354813	2.24555
356862	2.24647
358922	2.2474
360994	2.24832
363078	2.24924
365174	2.25017
367282	2.25109
369403	2.25201
371535	2.25293
373680	2.25386
375837	2.25478
378007	2.2557
380189	2.25662
382384	2.25754
384592	2.25846
386812	2.25938
389045	2.2603
391291	2.26122
393550	2.26214
395822	2.26305
398107	2.26397
400405	2.26489
402717	2.26581
405042	2.26672
407380	2.26764
409732	2.26856
412098	2.26947
414477	2.27039
416869	2.2713
419276	2.27222
421697	2.27313
424131	2.27404
426580	2.27496
429042	2.27587
431519	2.27678
434010	2.2777
436516	2.27861
439036	2.27952
441570	2.28043
444120	2.28134
446684	2.28225
449262	2.28316
451856	2.28407
454465	2.28498
457088	2.28589
459727	2.2868
462381	2.28771
465050	2.28862
467735	2.28952
470435	2.29043
473151	2.29134
475883	2.29224
478630	2.29315
481393	2.29405
484172	2.29496
486968	2.29586
489779	2.29677
492606	2.29767
495450	2.29858
498310	2.29948
501187	2.30038
504081	2.30128
506991	2.30219
509918	2.30309
512861	2.30399
515822	2.30489
518800	2.30579
521795	2.30669
524807	2.30759
527837	2.30849
530884	2.30939
533949	2.31029
537032	2.31119
540132	2.31208
543250	2.31298
546387	2.31388
549541	2.31478
552713	2.31567
555904	2.31657
559114	2.31746
562341	2.31836
565588	2.31925
568853	2.32015
572137	2.32104
575440	2.32193
578762	2.32283
582103	2.32372
585464	2.32461
588844	2.32551
592243	2.3264
595662	2.32729
599101	2.32818
602560	2.32907
606038	2.32996
609537	2.33085
613056	2.33174
616595	2.33263
620155	2.33352
623735	2.3344
627336	2.33529
630957	2.33618
634600	2.33706
638263	2.33795
641948	2.33884
645654	2.33972
649382	2.34061
653131	2.34149
656901	2.34238
660693	2.34326
664508	2.34414
668344	2.34503
672202	2.34591
676083	2.34679
679986	2.34768
683912	2.34856
687860	2.34944
691831	2.35032
695825	2.3512
699842	2.35208
703882	2.35296
707946	2.35384
712033	2.35472
716143	2.3556
720278	2.35647
724436	2.35735
728618	2.35823
732825	2.3591
737055	2.35998
741310	2.36086
745590	2.36173
749894	2.36261
754223	2.36348
758578	2.36436
762957	2.36523
767361	2.3661
771792	2.36698
776247	2.36785
780728	2.36872
785236	2.36959
789769	2.37047
794328	2.37134
798914	2.37221
803526	2.37308
808165	2.37395
812831	2.37482
817523	2.37569
822243	2.37655
826990	2.37742
831764	2.37829
836566	2.37916
841395	2.38003
846253	2.38089
851138	2.38176
856052	2.38262
860994	2.38349
865964	2.38435
870964	2.38522
875992	2.38608
881049	2.38695
886135	2.38781
891251	2.38867
896396	2.38953
901571	2.3904
906776	2.39126
912011	2.39212
917276	2.39298
922571	2.39384
927897	2.3947
933254	2.39556
938642	2.39642
944061	2.39728
949511	2.39814
954993	2.39899
960506	2.39985
966051	2.40071
971628	2.40157
977237	2.40242
982879	2.40328
988553	2.40413
994260	2.40499
1e+06	2.40584
1.00577e+06	2.4067
1.01158e+06	2.40755
1.01742e+06	2.4084
1.02329e+06	2.40926
1.0292e+06	2.41011
1.03514e+06	2.41096
1.04112e+06	2.41181
1.04713e+06	2.41266
1.05317e+06	2.41351
1.05925e+06	2.41436
1.06537e+06	2.41521
1.07152e+06	2.41606
1.07771e+06	2.41691
1.08393e+06	2.41776
1.09018e+06	2.41861
1.09648e+06	2.41946
1.10281e+06	2.4203
1.10917e+06	2.42115
1.11558e+06	2.422
1.12202e+06	2.42284
1.1285e+06	2.42369
1.13501e+06	2.42453
1.14156e+06	2.42538
1.14815e+06	2.42622
1.15478e+06	2.42707
1.16145e+06	2.42791
1.16815e+06	2.42875
1.1749e+06	2.4296
1.18168e+06	2.43044
1.1885e+06	2.43128
1.19536e+06	2.43212
1.20226e+06	2.43296
1.20921e+06	2.4338
1.21619e+06	2.43464
1.22321e+06	2.43548
1.23027e+06	2.43632
1.23737e+06	2.43716
1.24451e+06	2.438
1.2517e+06	2.43884
1.25893e+06	2.43967
1.26619e+06	2.44051
1.2735e+06	2.44135
1.28086e+06	2.44218
1.28825e+06	2.44302
1.29569e+06	2.44386
1.30317e+06	2.44469
1.31069e+06	2.44553
1.31826e+06	2.44636
1.32587e+06	2.44719
1.33352e+06	2.44803
1.34122e+06	2.44886
1.34896e+06	2.44969
1.35675e+06	2.45052
1.36458e+06	2.45135
1.37246e+06	2.45219
1.38038e+06	2.45302
1.38835e+06	2.45385
1.39637e+06	2.45468
1.40443e+06	2.4555
1.41254e+06	2.45633
1.42069e+06	2.45716
1.42889e+06	2.45799
1.43714e+06	2.45882
1.44544e+06	2.45964
1.45378e+06	2.46047
1.46218e+06	2.4613
1.47062e+06	2.46212
1.47911e+06	2.46295
1.48765e+06	2.46377
1.49624e+06	2.4646
1.50487e+06	2.46542
1.51356e+06	2.46625
1.5223e+06	2.46707
1.53109e+06	2.46789
1.53993e+06	2.46871
1.54882e+06	2.46953
1.55776e+06	2.47036
1.56675e+06	2.47118
1.5758e+06	2.472
1.58489e+06	2.47282
1.59404e+06	2.47364
1.60325e+06	2.47446
1.6125e+06	2.47527
1.62181e+06	2.47609
1.63117e+06	2.47691
1.64059e+06	2.47773
1.65006e+06	2.47855
1.65959e+06	2.47936
1.66917e+06	2.48018
1.6788e+06	2.48099
1.6885e+06	2.48181
1.69824e+06	2.48262
1.70805e+06	2.48344
1.71791e+06	2.48425
1.72783e+06	2.48506
1.7378e+06	2.48588
1.74783e+06	2.48669
1.75792e+06	2.4875
1.76807e+06	2.48831
1.77828e+06	2.48912
1.78855e+06	2.48993
1.79887e+06	2.49074
1.80926e+06	2.49155
1.8197e+06	2.49236
1.83021e+06	2.49317
1.84077e+06	2.49398
1.8514e+06	2.49479
1.86209e+06	2.4956
1.87284e+06	2.4964
1.88365e+06	2.49721
1.89452e+06	2.49802
1.90546e+06	2.49882
1.91646e+06	2.49963
1.92752e+06	2.50043
1.93865e+06	2.50123
1.94984e+06	2.50204
1.9611e+06	2.50284
1.97242e+06	2.50364
1.98381e+06	2.50445
1.99526e+06	2.50525
2.00678e+06	2.50605
2.01837e+06	2.50685
2.03002e+06	2.50765
2.04174e+06	2.50845
2.05353e+06	2.50925
2.06538e+06	2.51005
2.0773e+06	2.51085
2.0893e+06	2.51165
2.10136e+06	2.51245
2.11349e+06	2.51324
2.12569e+06	2.51404
2.13796e+06	2.51484
2.1503e+06	2.51563
2.16272e+06	2.51643
2.1752e+06	2.51722
2.18776e+06	2.51802
2.20039e+06	2.51881
2.21309e+06	2.51961
2.22587e+06	2.5204
2.23872e+06	2.52119
2.25165e+06	2.52198
2.26464e+06	2.52277
2.27772e+06	2.52357
2.29087e+06	2.52436
2.30409e+06	2.52515
2.31739e+06	2.52594
2.33077e+06	2.52673
2.34423e+06	2.52752
2.35776e+06	2.5283
2.37137e+06	2.52909
2.38506e+06	2.52988
2.39883e+06	2.53067
2.41268e+06	2.53145
2.42661e+06	2.53224
2.44062e+06	2.53302
2.45471e+06	2.53381
2.46888e+06	2.53459
2.48313e+06	2.53538
2.49747e+06	2.53616
2.51189e+06	2.53695
2.52639e+06	2.53773
2.54097e+06	2.53851
2.55564e+06	2.53929
2.5704e+06	2.54007
2.58523e+06	2.54085
2.60016e+06	2.54164
2.61517e+06	2.54242
2.63027e+06	2.54319
2.64545e+06	2.54397
2.66073e+06	2.54475
2.67609e+06	2.54553
2.69153e+06	2.54631
2.70707e+06	2.54708
2.7227e+06	2.54786
2.73842e+06	2.54864
2.75423e+06	2.54941
2.77013e+06	2.55019
2.78612e+06	2.55096
2.80221e+06	2.55174
2.81838e+06	2.55251
2.83465e+06	2.55328
2.85102e+06	2.55406
2.86748e+06	2.55483
2.88403e+06	2.5556
2.90068e+06	2.55637
2.91743e+06	2.55714
2.93427e+06	2.55791
2.95121e+06	2.55868
2.96825e+06	2.55945
2.98538e+06	2.56022
3.00262e+06	2.56099
3.01995e+06	2.56176
3.03739e+06	2.56252
3.05492e+06	2.56329
3.07256e+06	2.56406
3.0903e+06	2.56482
3.10814e+06	2.56559
3.12608e+06	2.56635
3.14413e+06	2.56712
3.16228e+06	2.56788
3.18053e+06	2.56865
3.1989e+06	2.56941
3.21736e+06	2.57017
3.23594e+06	2.57093
3.25462e+06	2.57169
3.27341e+06	2.57245
3.2923e+06	2.57322
3.31131e+06	2.57398
3.33043e+06	2.57473
3.34965e+06	2.57549
3.36899e+06	2.57625
3.38844e+06	2.57701
3.408e+06	2.57777
3.42768e+06	2.57852
3.44747e+06	2.57928
3.46737e+06	2.58004
3.48739e+06	2.58079
3.50752e+06	2.58155
3.52777e+06	2.5823
3.54813e+06	2.58306
3.56862e+06	2.58381
3.58922e+06	2.58456
3.60994e+06	2.58531
3.63078e+06	2.58607
3.65174e+06	2.58682
3.67282e+06	2.58757
3.69403e+06	2.58832
3.71535e+06	2.58907
3.7368e+06	2.58982
3.75837e+06	2.59057
3.78007e+06	2.59132
3.80189e+06	2.59206
3.82384e+06	2.59281
3.84592e+06	2.59356
3.86812e+06	2.5943
3.89045e+06	2.59505
3.91291e+06	2.59579
3.9355e+06	2.59654
3.95822e+06	2.59728
3.98107e+06	2.59803
4.00405e+06	2.59877
4.02717e+06	2.59951
4.05042e+06	2.60026
4.0738e+06	2.601
4.09732e+06	2.60174
4.12098e+06	2.60248
4.14477e+06	2.60322
4.16869e+06	2.60396
4.19276e+06	2.6047
4.21697e+06	2.60544
4.24131e+06	2.60617
4.2658e+06	2.60691
4.29042e+06	2.60765
4.31519e+06	2.60839
4.3401e+06	2.60912
4.36516e+06	2.60986
4.39036e+06	2.61059
4.4157e+06	2.61133
4.4412e+06	2.61206
4.46684e+06	2.61279
4.49262e+06	2.61353
4.51856e+06	2.61426
4.54465e+06	2.61499
4.57088e+06	2.61572
4.59727e+06	2.61645
4.62381e+06	2.61718
4.6505e+06	2.61791
4.67735e+06	2.61864
4.70435e+06	2.61937
4.73151e+06	2.6201
4.75883e+06	2.62082
4.7863e+06	2.62155
4.81393e+06	2.62228
4.84172e+06	2.623
4.86968e+06	2.62373
4.89779e+06	2.62445
4.92606e+06	2.62518
4.9545e+06	2.6259
4.9831e+06	2.62662
5.01187e+06	2.62735
5.04081e+06	2.62807
5.06991e+06	2.62879
5.09918e+06	2.62951
5.12861e+06	2.63023
5.15822e+06	2.63095
5.188e+06	2.63167
5.21795e+06	2.63239
5.24807e+06	2.63311
5.27837e+06	2.63383
5.30884e+06	2.63454
5.33949e+06	2.63526
5.37032e+06	2.63598
5.40132e+06	2.63669
5.4325e+06	2.63741
5.46387e+06	2.63812
5.49541e+06	2.63883
5.52713e+06	2.63955
5.55904e+06	2.64026
5.59114e+06	2.64097
5.62341e+06	2.64168
5.65588e+06	2.64239
5.68853e+06	2.6431
5.72137e+06	2.64381
5.7544e+06	2.64452
5.78762e+06	2.64523
5.82103e+06	2.64594
5.85464e+06	2.64665
5.88844e+06	2.64736
5.92243e+06	2.64806
5.95662e+06	2.64877
5.99101e+06	2.64947
6.0256e+06	2.65018
6.06038e+06	2.65088
6.09537e+06	2.65159
6.13056e+06	2.65229
6.16595e+06	2.65299
6.20155e+06	2.65369
6.23735e+06	2.6544
6.27336e+06	2.6551
6.30957e+06	2.6558
6.346e+06	2.6565
6.38263e+06	2.6572
6.41948e+06	2.65789
6.45654e+06	2.65859
6.49382e+06	2.65929
6.53131e+06	2.65999
6.56901e+06	2.66068
6.60693e+06	2.66138
6.64508e+06	2.66207
6.68344e+06	2.66277
6.72202e+06	2.66346
6.76083e+06	2.66416
6.79986e+06	2.66485
6.83912e+06	2.66554
6.8786e+06	2.66623
6.91831e+06	2.66692
6.95825e+06	2.66762
6.99842e+06	2.66831
7.03882e+06	2.66899
7.07946e+06	2.66968
7.12033e+06	2.67037
7.16143e+06	2.67106
7.20278e+06	2.67175
7.24436e+06	2.67243
7.28618e+06	2.67312
7.32825e+06	2.67381
7.37055e+06	2.67449
7.4131e+06	2.67517
7.4559e+06	2.67586
7.49894e+06	2.67654
7.54223e+06	2.67722
7.58578e+06	2.67791
7.62957e+06	2.67859
7.67361e+06	2.67927
7.71792e+06	2.67995
7.76247e+06	2.68063
7.80728e+06	2.68131
7.85236e+06	2.68199
7.89769e+06	2.68266
7.94328e+06	2.68334
7.98914e+06	2.68402
8.03526e+06	2.68469
8.08165e+06	2.68537
8.12831e+06	2.68604
8.17523e+06	2.68672
8.22243e+06	2.68739
8.2699e+06	2.68807
8.31764e+06	2.68874
8.36566e+06	2.68941
8.41395e+06	2.69008
8.46253e+06	2.69075
8.51138e+06	2.69142
8.56052e+06	2.69209
8.60994e+06	2.69276
8.65964e+06	2.69343
8.70964e+06	2.6941
8.75992e+06	2.69477
8.81049e+06	2.69543
8.86135e+06	2.6961
8.91251e+06	2.69677
8.96396e+06	2.69743
9.01571e+06	2.6981
9.06776e+06	2.69876
9.12011e+06	2.69942
9.17276e+06	2.70009
9.22571e+06	2.70075
9.27897e+06	2.70141
9.33254e+06	2.70207
9.38642e+06	2.70273
9.44061e+06	2.70339
9.49511e+06	2.70405
9.54993e+06	2.70471
9.60506e+06	2.70537
9.66051e+06	2.70602
9.71628e+06	2.70668
9.77237e+06	2.70734
9.82879e+06	2.70799
9.88553e+06	2.70865
9.9426e+06	2.7093
1e+07	2.70996
