Stopping power dEdx from Ionisation for Li7[0.0] Z = 3 in G4_Si, process name: ionIoni
E [MeV]	dEdx [MeV/mm]
0.001	26.9653
0.00100577	27.0435
0.00101158	27.122
0.00101742	27.2007
0.00102329	27.2797
0.0010292	27.3588
0.00103514	27.4382
0.00104112	27.5178
0.00104713	27.5977
0.00105317	27.6778
0.00105925	27.7581
0.00106537	27.8386
0.00107152	27.9194
0.00107771	28.0004
0.00108393	28.0816
0.00109018	28.1631
0.00109648	28.2448
0.00110281	28.3267
0.00110917	28.4089
0.00111558	28.4913
0.00112202	28.574
0.0011285	28.6569
0.00113501	28.74
0.00114156	28.8234
0.00114815	28.907
0.00115478	28.9908
0.00116145	29.0749
0.00116815	29.1593
0.0011749	29.2439
0.00118168	29.3287
0.0011885	29.4137
0.00119536	29.4991
0.00120226	29.5846
0.00120921	29.6704
0.00121619	29.7565
0.00122321	29.8428
0.00123027	29.9293
0.00123737	30.0161
0.00124451	30.1032
0.0012517	30.1905
0.00125893	30.278
0.00126619	30.3658
0.0012735	30.4539
0.00128086	30.5422
0.00128825	30.6308
0.00129569	30.7196
0.00130317	30.8087
0.00131069	30.898
0.00131826	30.9876
0.00132587	31.0774
0.00133352	31.1675
0.00134122	31.2579
0.00134896	31.3485
0.00135675	31.4394
0.00136458	31.5306
0.00137246	31.622
0.00138038	31.7137
0.00138835	31.8056
0.00139637	31.8978
0.00140443	31.9903
0.00141254	32.083
0.00142069	32.176
0.00142889	32.2693
0.00143714	32.3629
0.00144544	32.4567
0.00145378	32.5508
0.00146218	32.6451
0.00147062	32.7397
0.00147911	32.8346
0.00148765	32.9298
0.00149624	33.0253
0.00150487	33.121
0.00151356	33.217
0.0015223	33.3132
0.00153109	33.4098
0.00153993	33.5066
0.00154882	33.6037
0.00155776	33.7011
0.00156675	33.7988
0.0015758	33.8968
0.00158489	33.995
0.00159404	34.0935
0.00160325	34.1923
0.0016125	34.2914
0.00162181	34.3908
0.00163117	34.4904
0.00164059	34.5904
0.00165006	34.6906
0.00165959	34.7911
0.00166917	34.8919
0.0016788	34.993
0.0016885	35.0944
0.00169824	35.1961
0.00170805	35.2981
0.00171791	35.4004
0.00172783	35.5029
0.0017378	35.6058
0.00174783	35.709
0.00175792	35.8124
0.00176807	35.9162
0.00177828	36.0202
0.00178855	36.1246
0.00179887	36.2292
0.00180926	36.3342
0.0018197	36.4395
0.00183021	36.545
0.00184077	36.6509
0.0018514	36.7571
0.00186209	36.8635
0.00187284	36.9703
0.00188365	37.0774
0.00189452	37.1848
0.00190546	37.2925
0.00191646	37.4006
0.00192752	37.5089
0.00193865	37.6175
0.00194984	37.7265
0.0019611	37.8358
0.00197242	37.9454
0.00198381	38.0553
0.00199526	38.1655
0.00200678	38.276
0.00201837	38.3869
0.00203002	38.4981
0.00204174	38.6096
0.00205353	38.7214
0.00206538	38.8335
0.0020773	38.946
0.0020893	39.0588
0.00210136	39.1719
0.00211349	39.2853
0.00212569	39.3991
0.00213796	39.5132
0.0021503	39.6276
0.00216272	39.7424
0.0021752	39.8574
0.00218776	39.9729
0.00220039	40.0886
0.00221309	40.2047
0.00222587	40.3211
0.00223872	40.4379
0.00225165	40.5549
0.00226464	40.6724
0.00227772	40.7901
0.00229087	40.9082
0.00230409	41.0267
0.00231739	41.1455
0.00233077	41.2646
0.00234423	41.3841
0.00235776	41.5039
0.00237137	41.624
0.00238506	41.7445
0.00239883	41.8654
0.00241268	41.9866
0.00242661	42.1082
0.00244062	42.2301
0.00245471	42.3523
0.00246888	42.4749
0.00248313	42.5979
0.00249747	42.7212
0.00251189	42.8449
0.00252639	42.9689
0.00254097	43.0933
0.00255564	43.218
0.0025704	43.3431
0.00258523	43.4686
0.00260016	43.5944
0.00261517	43.7206
0.00263027	43.8471
0.00264545	43.9741
0.00266073	44.1013
0.00267609	44.229
0.00269153	44.357
0.00270707	44.4854
0.0027227	44.6141
0.00273842	44.7433
0.00275423	44.8728
0.00277013	45.0026
0.00278612	45.1329
0.00280221	45.2635
0.00281838	45.3945
0.00283465	45.5259
0.00285102	45.6576
0.00286748	45.7898
0.00288403	45.9223
0.00290068	46.0552
0.00291743	46.1885
0.00293427	46.3221
0.00295121	46.4562
0.00296825	46.5906
0.00298538	46.7254
0.00300262	46.8606
0.00301995	46.9962
0.00303739	47.1322
0.00305492	47.2686
0.00307256	47.4054
0.0030903	47.5426
0.00310814	47.6801
0.00312608	47.8181
0.00314413	47.9565
0.00316228	48.0952
0.00318053	48.2344
0.0031989	48.3739
0.00321736	48.5139
0.00323594	48.6543
0.00325462	48.795
0.00327341	48.9362
0.0032923	49.0778
0.00331131	49.2198
0.00333043	49.3622
0.00334965	49.505
0.00336899	49.6482
0.00338844	49.7919
0.003408	49.9359
0.00342768	50.0804
0.00344747	50.2253
0.00346737	50.3706
0.00348739	50.5163
0.00350752	50.6624
0.00352777	50.809
0.00354813	50.956
0.00356862	51.1034
0.00358922	51.2512
0.00360994	51.3994
0.00363078	51.5481
0.00365174	51.6972
0.00367282	51.8468
0.00369403	51.9968
0.00371535	52.1472
0.0037368	52.298
0.00375837	52.4493
0.00378007	52.601
0.00380189	52.7531
0.00382384	52.9057
0.00384592	53.0587
0.00386812	53.2122
0.00389045	53.3661
0.00391291	53.5205
0.0039355	53.6753
0.00395822	53.8305
0.00398107	53.9862
0.00400405	54.1423
0.00402717	54.2989
0.00405042	54.456
0.0040738	54.6135
0.00409732	54.7714
0.00412098	54.9298
0.00414477	55.0887
0.00416869	55.248
0.00419276	55.4078
0.00421697	55.568
0.00424131	55.7287
0.0042658	55.8899
0.00429042	56.0515
0.00431519	56.2136
0.0043401	56.3762
0.00436516	56.5392
0.00439036	56.7027
0.0044157	56.8666
0.0044412	57.0311
0.00446684	57.196
0.00449262	57.3614
0.00451856	57.5273
0.00454465	57.6936
0.00457088	57.8604
0.00459727	58.0277
0.00462381	58.1955
0.0046505	58.3638
0.00467735	58.5326
0.00470435	58.7018
0.00473151	58.8715
0.00475883	59.0418
0.0047863	59.2125
0.00481393	59.3837
0.00484172	59.5554
0.00486968	59.7276
0.00489779	59.9003
0.00492606	60.0734
0.0049545	60.2471
0.0049831	60.4213
0.00501187	60.596
0.00504081	60.7712
0.00506991	60.9469
0.00509918	61.1231
0.00512861	61.2998
0.00515822	61.477
0.005188	61.6548
0.00521795	61.833
0.00524807	62.0118
0.00527837	62.191
0.00530884	62.3708
0.00533949	62.5511
0.00537032	62.732
0.00540132	62.9133
0.0054325	63.0952
0.00546387	63.2776
0.00549541	63.4605
0.00552713	63.6439
0.00555904	63.8279
0.00559114	64.0124
0.00562341	64.1975
0.00565588	64.383
0.00568853	64.5691
0.00572137	64.7558
0.0057544	64.943
0.00578762	65.1307
0.00582103	65.3189
0.00585464	65.5078
0.00588844	65.6971
0.00592243	65.887
0.00595662	66.0774
0.00599101	66.2684
0.0060256	66.46
0.00606038	66.6521
0.00609537	66.8447
0.00613056	67.0379
0.00616595	67.2317
0.00620155	67.426
0.00623735	67.6209
0.00627336	67.8163
0.00630957	68.0123
0.006346	68.2089
0.00638263	68.406
0.00641948	68.6037
0.00645654	68.802
0.00649382	69.0008
0.00653131	69.2003
0.00656901	69.4003
0.00660693	69.6008
0.00664508	69.802
0.00668344	70.0037
0.00672202	70.206
0.00676083	70.4089
0.00679986	70.6124
0.00683912	70.8164
0.0068786	71.0211
0.00691831	71.2263
0.00695825	71.4322
0.00699842	71.6386
0.00703882	71.8456
0.00707946	72.0532
0.00712033	72.2614
0.00716143	72.4703
0.00720278	72.6797
0.00724436	72.8897
0.00728618	73.1003
0.00732825	73.3116
0.00737055	73.5234
0.0074131	73.9201
0.0074559	74.1332
0.00749894	74.3469
0.00754223	74.5612
0.00758578	74.7761
0.00762957	74.9916
0.00767361	75.2078
0.00771792	75.4245
0.00776247	75.6419
0.00780728	75.86
0.00785236	76.0786
0.00789769	76.2979
0.00794328	76.5178
0.00798914	76.7384
0.00803526	76.9596
0.00808165	77.1814
0.00812831	77.4039
0.00817523	77.627
0.00822243	77.8507
0.0082699	78.0751
0.00831764	78.3002
0.00836566	78.5259
0.00841395	78.7522
0.00846253	78.9792
0.00851138	79.2068
0.00856052	79.4351
0.00860994	79.6641
0.00865964	79.8937
0.00870964	80.124
0.00875992	80.355
0.00881049	80.5866
0.00886135	80.8189
0.00891251	81.0518
0.00896396	81.2854
0.00901571	81.5197
0.00906776	81.7547
0.00912011	81.9903
0.00917276	82.2267
0.00922571	82.4637
0.00927897	82.7014
0.00933254	82.9397
0.00938642	83.1788
0.00944061	83.4186
0.00949511	83.659
0.00954993	83.9001
0.00960506	84.142
0.00966051	84.3845
0.00971628	84.6277
0.00977237	84.8717
0.00982879	85.1163
0.00988553	85.3616
0.0099426	85.6077
0.01	85.8544
0.0100577	86.1019
0.0101158	86.3501
0.0101742	86.599
0.0102329	86.8486
0.010292	87.0989
0.0103514	87.35
0.0104112	87.6017
0.0104713	87.8542
0.0105317	88.1075
0.0105925	88.3614
0.0106537	88.6161
0.0107152	88.8715
0.0107771	89.1277
0.0108393	89.3846
0.0109018	89.6422
0.0109648	89.9006
0.0110281	90.1597
0.0110917	90.4196
0.0111558	90.6802
0.0112202	90.9416
0.011285	91.2037
0.0113501	91.4666
0.0114156	91.7303
0.0114815	91.9947
0.0115478	92.2598
0.0116145	92.5258
0.0116815	92.7925
0.011749	93.0599
0.0118168	93.3282
0.011885	93.5972
0.0119536	93.8669
0.0120226	94.1375
0.0120921	94.4088
0.0121619	94.681
0.0122321	94.9539
0.0123027	95.2276
0.0123737	95.502
0.0124451	95.7773
0.012517	96.0534
0.0125893	96.3302
0.0126619	96.6079
0.012735	96.8864
0.0128086	97.1656
0.0128825	97.4457
0.0129569	97.7266
0.0130317	98.0083
0.0131069	98.2908
0.0131826	98.5741
0.0132587	98.8582
0.0133352	99.1431
0.0134122	99.4289
0.0134896	99.7155
0.0135675	100.003
0.0136458	100.291
0.0137246	100.58
0.0138038	100.87
0.0138835	101.161
0.0139637	101.452
0.0140443	101.745
0.0141254	102.038
0.0142069	102.332
0.0142889	102.627
0.0143714	102.923
0.0144544	103.22
0.0145378	103.517
0.0146218	103.816
0.0147062	104.115
0.0147911	104.415
0.0148765	104.716
0.0149624	105.018
0.0150487	105.32
0.0151356	105.624
0.015223	105.928
0.0153109	106.234
0.0153993	106.54
0.0154882	106.847
0.0155776	107.155
0.0156675	107.464
0.015758	107.774
0.0158489	108.084
0.0159404	108.396
0.0160325	108.708
0.016125	109.022
0.0162181	109.336
0.0163117	109.651
0.0164059	109.967
0.0165006	110.284
0.0165959	110.602
0.0166917	110.921
0.016788	111.24
0.016885	111.561
0.0169824	111.883
0.0170805	112.205
0.0171791	112.529
0.0172783	112.853
0.017378	113.178
0.0174783	113.504
0.0175792	113.832
0.0176807	114.16
0.0177828	114.489
0.0178855	114.819
0.0179887	115.15
0.0180926	115.482
0.018197	115.814
0.0183021	116.148
0.0184077	116.483
0.018514	116.819
0.0186209	117.155
0.0187284	117.493
0.0188365	117.832
0.0189452	118.171
0.0190546	118.512
0.0191646	118.854
0.0192752	119.196
0.0193865	119.54
0.0194984	119.884
0.019611	120.23
0.0197242	120.577
0.0198381	120.924
0.0199526	121.273
0.0200678	121.622
0.0201837	121.973
0.0203002	122.324
0.0204174	122.677
0.0205353	123.03
0.0206538	123.385
0.020773	123.741
0.020893	124.097
0.0210136	124.455
0.0211349	124.814
0.0212569	125.174
0.0213796	125.534
0.021503	125.896
0.0216272	126.259
0.021752	126.623
0.0218776	126.988
0.0220039	127.354
0.0221309	127.721
0.0222587	128.089
0.0223872	128.458
0.0225165	128.829
0.0226464	129.2
0.0227772	129.572
0.0229087	129.946
0.0230409	130.32
0.0231739	130.696
0.0233077	131.073
0.0234423	131.451
0.0235776	131.83
0.0237137	132.21
0.0238506	132.591
0.0239883	132.973
0.0241268	133.356
0.0242661	133.74
0.0244062	134.126
0.0245471	134.513
0.0246888	134.9
0.0248313	135.289
0.0249747	135.679
0.0251189	136.07
0.0252639	136.462
0.0254097	136.856
0.0255564	137.25
0.025704	137.646
0.0258523	138.042
0.0260016	138.44
0.0261517	138.839
0.0263027	139.24
0.0264545	139.641
0.0266073	140.043
0.0267609	140.447
0.0269153	140.852
0.0270707	141.258
0.027227	141.665
0.0273842	142.073
0.0275423	142.483
0.0277013	142.894
0.0278612	143.305
0.0280221	143.719
0.0281838	144.133
0.0283465	144.548
0.0285102	144.965
0.0286748	145.383
0.0288403	145.802
0.0290068	146.222
0.0291743	146.643
0.0293427	147.066
0.0295121	147.49
0.0296825	147.915
0.0298538	148.342
0.0300262	148.769
0.0301995	149.198
0.0303739	149.628
0.0305492	150.059
0.0307256	150.492
0.030903	150.926
0.0310814	151.361
0.0312608	151.797
0.0314413	152.234
0.0316228	152.673
0.0318053	153.113
0.031989	153.555
0.0321736	153.997
0.0323594	154.441
0.0325462	154.886
0.0327341	155.333
0.032923	155.78
0.0331131	156.229
0.0333043	156.68
0.0334965	157.131
0.0336899	157.584
0.0338844	158.038
0.03408	158.494
0.0342768	158.951
0.0344747	159.409
0.0346737	159.868
0.0348739	160.329
0.0350752	160.791
0.0352777	161.255
0.0354813	161.72
0.0356862	162.186
0.0358922	162.653
0.0360994	163.122
0.0363078	163.592
0.0365174	164.064
0.0367282	164.537
0.0369403	165.011
0.0371535	165.487
0.037368	165.964
0.0375837	166.442
0.0378007	166.922
0.0380189	167.403
0.0382384	167.885
0.0384592	168.369
0.0386812	168.855
0.0389045	169.341
0.0391291	169.829
0.039355	170.319
0.0395822	170.81
0.0398107	171.302
0.0400405	171.796
0.0402717	172.291
0.0405042	172.788
0.040738	173.286
0.0409732	173.785
0.0412098	174.286
0.0414477	174.788
0.0416869	175.292
0.0419276	175.797
0.0421697	176.304
0.0424131	176.812
0.042658	177.322
0.0429042	177.833
0.0431519	178.346
0.043401	178.86
0.0436516	179.375
0.0439036	179.892
0.044157	180.411
0.044412	180.931
0.0446684	181.452
0.0449262	181.975
0.0451856	182.5
0.0454465	183.026
0.0457088	183.554
0.0459727	184.083
0.0462381	184.613
0.046505	185.145
0.0467735	185.679
0.0470435	186.214
0.0473151	186.751
0.0475883	187.289
0.047863	187.829
0.0481393	188.37
0.0484172	188.913
0.0486968	189.458
0.0489779	190.004
0.0492606	190.552
0.049545	191.101
0.049831	191.652
0.0501187	192.204
0.0504081	192.758
0.0506991	193.314
0.0509918	193.871
0.0512861	194.43
0.0515822	194.99
0.05188	195.552
0.0521795	196.116
0.0524807	196.681
0.0527837	197.248
0.0530884	197.817
0.0533949	198.387
0.0537032	198.959
0.0540132	199.532
0.054325	200.107
0.0546387	200.684
0.0549541	201.262
0.0552713	201.843
0.0555904	202.424
0.0559114	203.008
0.0562341	203.593
0.0565588	204.18
0.0568853	204.768
0.0572137	205.358
0.057544	205.95
0.0578762	206.544
0.0582103	207.139
0.0585464	207.736
0.0588844	208.335
0.0592243	208.936
0.0595662	209.538
0.0599101	210.142
0.060256	210.748
0.0606038	211.355
0.0609537	211.964
0.0613056	212.575
0.0616595	213.188
0.0620155	213.802
0.0623735	214.419
0.0627336	215.037
0.0630957	215.657
0.06346	216.278
0.0638263	216.902
0.0641948	217.527
0.0645654	218.154
0.0649382	218.783
0.0653131	219.413
0.0656901	220.046
0.0660693	220.68
0.0664508	221.316
0.0668344	221.954
0.0672202	222.594
0.0676083	223.235
0.0679986	223.879
0.0683912	224.524
0.068786	225.171
0.0691831	225.82
0.0695825	226.471
0.0699842	227.124
0.0703882	227.778
0.0707946	228.435
0.0712033	229.093
0.0716143	229.754
0.0720278	230.416
0.0724436	231.08
0.0728618	231.746
0.0732825	232.414
0.0737055	233.084
0.074131	233.756
0.074559	234.43
0.0749894	235.105
0.0754223	235.783
0.0758578	236.463
0.0762957	237.144
0.0767361	237.828
0.0771792	238.513
0.0776247	239.201
0.0780728	239.89
0.0785236	240.582
0.0789769	241.275
0.0794328	241.971
0.0798914	242.668
0.0803526	243.368
0.0808165	244.069
0.0812831	244.773
0.0817523	245.478
0.0822243	246.186
0.082699	246.895
0.0831764	247.607
0.0836566	248.321
0.0841395	249.036
0.0846253	249.754
0.0851138	250.474
0.0856052	251.196
0.0860994	251.92
0.0865964	252.646
0.0870964	253.374
0.0875992	254.105
0.0881049	254.837
0.0886135	255.572
0.0891251	256.308
0.0896396	257.047
0.0901571	257.788
0.0906776	258.531
0.0912011	259.276
0.0917276	260.024
0.0922571	260.773
0.0927897	261.525
0.0933254	262.278
0.0938642	263.034
0.0944061	263.793
0.0949511	264.553
0.0954993	265.316
0.0960506	266.08
0.0966051	266.847
0.0971628	267.616
0.0977237	268.388
0.0982879	269.161
0.0988553	269.937
0.099426	270.715
0.1	271.496
0.100577	272.278
0.101158	273.063
0.101742	273.85
0.102329	274.639
0.10292	275.431
0.103514	276.225
0.104112	277.021
0.104713	277.819
0.105317	278.62
0.105925	279.423
0.106537	280.229
0.107152	281.036
0.107771	281.847
0.108393	282.659
0.109018	283.474
0.109648	284.291
0.110281	285.11
0.110917	285.932
0.111558	286.756
0.112202	287.583
0.11285	288.412
0.113501	289.243
0.114156	290.077
0.114815	290.913
0.115478	291.751
0.116145	292.592
0.116815	293.436
0.11749	294.281
0.118168	295.13
0.11885	295.98
0.119536	296.833
0.120226	297.689
0.120921	298.547
0.121619	299.408
0.122321	300.271
0.123027	301.136
0.123737	302.004
0.124451	302.874
0.12517	303.747
0.125893	304.623
0.126619	305.501
0.12735	306.382
0.128086	307.265
0.128825	308.15
0.129569	309.039
0.130317	309.929
0.131069	310.823
0.131826	311.719
0.132587	312.617
0.133352	313.518
0.134122	314.422
0.134896	315.328
0.135675	316.237
0.136458	317.149
0.137246	318.063
0.138038	318.979
0.138835	319.899
0.139637	320.821
0.140443	321.746
0.141254	322.673
0.142069	323.603
0.142889	324.536
0.143714	325.471
0.144544	326.409
0.145378	327.35
0.146218	328.294
0.147062	329.24
0.147911	330.189
0.148765	331.141
0.149624	332.095
0.150487	333.052
0.151356	334.012
0.15223	334.975
0.153109	335.941
0.153993	336.909
0.154882	337.88
0.155776	338.854
0.156675	339.831
0.15758	340.81
0.158489	341.793
0.159404	342.778
0.160325	343.766
0.16125	344.757
0.162181	345.75
0.163117	346.747
0.164059	347.746
0.165006	348.749
0.165959	349.754
0.166917	350.762
0.16788	351.773
0.16885	352.787
0.169824	353.804
0.170805	354.824
0.171791	355.846
0.172783	356.872
0.17378	357.901
0.174783	358.932
0.175792	359.93
0.176807	360.921
0.177828	361.916
0.178855	362.915
0.179887	363.917
0.180926	364.923
0.18197	365.933
0.183021	366.946
0.184077	367.963
0.18514	368.984
0.186209	370.008
0.187284	371.035
0.188365	372.066
0.189452	373.101
0.190546	374.138
0.191646	375.18
0.192752	376.224
0.193865	377.272
0.194984	378.323
0.19611	379.378
0.197242	380.435
0.198381	381.496
0.199526	382.56
0.200678	383.627
0.201837	384.697
0.203002	385.77
0.204174	386.845
0.205353	387.924
0.206538	389.006
0.20773	390.09
0.20893	391.177
0.210136	392.247
0.211349	393.166
0.212569	394.086
0.213796	395.008
0.21503	395.931
0.216272	396.855
0.21752	397.781
0.218776	398.708
0.220039	399.636
0.221309	400.565
0.222587	401.495
0.223872	402.425
0.225165	403.357
0.226464	404.289
0.227772	405.222
0.229087	406.155
0.230409	407.089
0.231739	408.023
0.233077	408.957
0.234423	409.891
0.235776	410.826
0.237137	411.76
0.238506	412.694
0.239883	413.627
0.241268	414.56
0.242661	415.493
0.244062	416.425
0.245471	417.356
0.246888	418.286
0.248313	419.215
0.249747	420.143
0.251189	421.07
0.252639	421.995
0.254097	422.918
0.255564	423.84
0.25704	424.759
0.258523	425.677
0.260016	426.592
0.261517	427.505
0.263027	428.416
0.264545	429.323
0.266073	430.228
0.267609	431.13
0.269153	432.028
0.270707	432.923
0.27227	433.815
0.273842	434.702
0.275423	435.586
0.277013	436.465
0.278612	437.34
0.280221	438.204
0.281838	439.023
0.283465	439.837
0.285102	440.646
0.286748	441.449
0.288403	442.247
0.290068	443.041
0.291743	443.829
0.293427	444.611
0.295121	445.389
0.296825	446.161
0.298538	446.928
0.300262	447.69
0.301995	448.447
0.303739	449.199
0.305492	449.945
0.307256	450.687
0.30903	451.423
0.310814	452.154
0.312608	452.88
0.314413	453.6
0.316228	454.316
0.318053	455.027
0.31989	455.733
0.321736	456.434
0.323594	457.13
0.325462	457.821
0.327341	458.508
0.32923	459.189
0.331131	459.867
0.333043	460.539
0.334965	461.207
0.336899	461.871
0.338844	462.53
0.3408	463.186
0.342768	463.837
0.344747	464.484
0.346737	465.127
0.348739	465.767
0.350752	466.402
0.352777	467.032
0.354813	467.659
0.356862	468.282
0.358922	468.901
0.360994	469.517
0.363078	470.129
0.365174	470.737
0.367282	471.342
0.369403	471.942
0.371535	472.539
0.37368	473.132
0.375837	473.721
0.378007	474.307
0.380189	474.888
0.382384	475.466
0.384592	476.039
0.386812	476.609
0.389045	477.175
0.391291	477.737
0.39355	478.295
0.395822	478.849
0.398107	479.4
0.400405	479.946
0.402717	480.489
0.405042	481.027
0.40738	481.562
0.409732	482.093
0.412098	482.621
0.414477	483.144
0.416869	483.664
0.419276	484.18
0.421697	484.692
0.424131	485.2
0.42658	485.705
0.429042	486.206
0.431519	486.703
0.43401	487.197
0.436516	487.687
0.439036	488.173
0.44157	488.655
0.44412	489.133
0.446684	489.608
0.449262	490.079
0.451856	490.546
0.454465	491.01
0.457088	491.47
0.459727	491.926
0.462381	492.378
0.46505	492.826
0.467735	493.271
0.470435	493.713
0.473151	494.15
0.475883	494.585
0.47863	495.015
0.481393	495.442
0.484172	495.865
0.486968	496.285
0.489779	496.702
0.492606	497.115
0.49545	497.525
0.49831	497.931
0.501187	498.334
0.504081	498.734
0.506991	499.13
0.509918	499.523
0.512861	499.912
0.515822	500.298
0.5188	500.68
0.521795	501.058
0.524807	501.434
0.527837	501.805
0.530884	502.173
0.533949	502.538
0.537032	502.899
0.540132	503.257
0.54325	503.611
0.546387	503.962
0.549541	504.309
0.552713	504.652
0.555904	504.993
0.559114	505.329
0.562341	505.663
0.565588	505.993
0.568853	506.319
0.572137	506.642
0.57544	506.962
0.578762	507.278
0.582103	507.59
0.585464	507.899
0.588844	508.205
0.592243	508.507
0.595662	508.805
0.599101	509.1
0.60256	509.391
0.606038	509.679
0.609537	509.963
0.613056	510.244
0.616595	510.521
0.620155	510.795
0.623735	511.065
0.627336	511.332
0.630957	511.595
0.6346	511.854
0.638263	512.11
0.641948	512.363
0.645654	512.612
0.649382	512.858
0.653131	513.1
0.656901	513.339
0.660693	513.575
0.664508	513.807
0.668344	514.036
0.672202	514.261
0.676083	514.483
0.679986	514.702
0.683912	514.918
0.68786	515.13
0.691831	515.339
0.695825	515.546
0.699842	515.749
0.703882	515.949
0.707946	516.147
0.712033	516.342
0.716143	516.534
0.720278	516.722
0.724436	516.908
0.728618	517.09
0.732825	517.269
0.737055	517.444
0.74131	517.617
0.74559	517.786
0.749894	517.952
0.754223	518.114
0.758578	518.273
0.762957	518.429
0.767361	518.581
0.771792	518.73
0.776247	518.876
0.780728	519.018
0.785236	519.156
0.789769	519.291
0.794328	519.423
0.798914	519.551
0.803526	519.675
0.808165	519.796
0.812831	519.913
0.817523	520.027
0.822243	520.137
0.82699	520.243
0.831764	520.346
0.836566	520.445
0.841395	520.541
0.846253	520.633
0.851138	520.721
0.856052	520.806
0.860994	520.887
0.865964	520.964
0.870964	521.038
0.875992	521.108
0.881049	521.175
0.886135	521.238
0.891251	521.297
0.896396	521.353
0.901571	521.405
0.906776	521.453
0.912011	521.498
0.917276	521.54
0.922571	521.578
0.927897	521.612
0.933254	521.643
0.938642	521.67
0.944061	521.695
0.949511	521.715
0.954993	521.733
0.960506	521.746
0.966051	521.757
0.971628	521.765
0.977237	521.769
0.982879	521.77
0.988553	521.768
0.99426	521.763
1	521.755
1.00577	521.744
1.01158	521.73
1.01742	521.713
1.02329	521.693
1.0292	521.671
1.03514	521.646
1.04112	521.619
1.04713	521.589
1.05317	521.552
1.05925	521.508
1.06537	521.462
1.07152	521.413
1.07771	521.361
1.08393	521.307
1.09018	521.251
1.09648	521.192
1.10281	521.131
1.10917	521.067
1.11558	521
1.12202	520.93
1.1285	520.858
1.13501	520.784
1.14156	520.706
1.14815	520.626
1.15478	520.543
1.16145	520.457
1.16815	520.369
1.1749	520.277
1.18168	520.183
1.1885	520.086
1.19536	519.985
1.20226	519.882
1.20921	519.776
1.21619	519.667
1.22321	519.555
1.23027	519.44
1.23737	519.322
1.24451	519.201
1.2517	519.077
1.25893	518.95
1.26619	518.819
1.2735	518.685
1.28086	518.549
1.28825	518.409
1.29569	518.265
1.30317	518.119
1.31069	517.969
1.31826	517.816
1.32587	517.659
1.33352	517.5
1.34122	517.337
1.34896	517.17
1.35675	517
1.36458	516.827
1.37246	516.651
1.38038	516.471
1.38835	516.287
1.39637	516.1
1.40443	515.91
1.41254	515.718
1.42069	515.522
1.42889	515.322
1.43714	515.119
1.44544	514.912
1.45378	514.702
1.46218	514.488
1.47062	514.27
1.47911	514.049
1.48765	513.825
1.49624	513.597
1.50487	513.365
1.51356	513.129
1.5223	512.89
1.53109	512.648
1.53993	512.402
1.54882	512.152
1.55776	511.898
1.56675	511.641
1.5758	511.38
1.58489	511.116
1.59404	510.848
1.60325	510.576
1.6125	510.301
1.62181	510.022
1.63117	509.74
1.64059	509.454
1.65006	509.164
1.65959	508.871
1.66917	508.575
1.6788	508.274
1.6885	507.971
1.69824	507.663
1.70805	507.353
1.71791	507.038
1.72783	506.721
1.7378	506.399
1.74783	506.075
1.75792	505.747
1.76807	505.416
1.77828	505.081
1.78855	504.743
1.79887	504.402
1.80926	504.057
1.8197	503.709
1.83021	503.357
1.84077	503.002
1.8514	502.643
1.86209	502.281
1.87284	501.916
1.88365	501.546
1.89452	501.174
1.90546	500.797
1.91646	500.418
1.92752	500.034
1.93865	499.648
1.94984	499.257
1.9611	498.863
1.97242	498.466
1.98381	498.065
1.99526	497.66
2.00678	497.252
2.01837	496.84
2.03002	496.424
2.04174	496.005
2.05353	495.583
2.06538	495.156
2.0773	494.727
2.0893	494.293
2.10136	493.857
2.11349	493.416
2.12569	492.973
2.13796	492.525
2.1503	492.074
2.16272	491.62
2.1752	491.161
2.18776	490.699
2.20039	490.234
2.21309	489.765
2.22587	489.292
2.23872	488.816
2.25165	488.336
2.26464	487.852
2.27772	487.364
2.29087	486.873
2.30409	486.379
2.31739	485.88
2.33077	485.378
2.34423	484.872
2.35776	484.363
2.37137	483.85
2.38506	483.333
2.39883	482.812
2.41268	482.288
2.42661	481.76
2.44062	481.229
2.45471	480.693
2.46888	480.155
2.48313	479.612
2.49747	479.066
2.51189	478.516
2.52639	477.963
2.54097	477.406
2.55564	476.845
2.5704	476.281
2.58523	475.714
2.60016	475.142
2.61517	474.568
2.63027	473.989
2.64545	473.408
2.66073	472.822
2.67609	472.234
2.69153	471.642
2.70707	471.046
2.7227	470.447
2.73842	469.845
2.75423	469.24
2.77013	468.631
2.78612	468.019
2.80221	467.404
2.81838	466.785
2.83465	466.162
2.85102	465.537
2.86748	464.909
2.88403	464.277
2.90068	463.642
2.91743	463.004
2.93427	462.363
2.95121	461.718
2.96825	461.071
2.98538	460.42
3.00262	459.766
3.01995	459.109
3.03739	458.449
3.05492	457.786
3.07256	457.12
3.0903	456.45
3.10814	455.778
3.12608	455.102
3.14413	454.423
3.16228	453.742
3.18053	453.057
3.1989	452.369
3.21736	451.678
3.23594	450.984
3.25462	450.287
3.27341	449.587
3.2923	448.884
3.31131	448.179
3.33043	447.47
3.34965	446.758
3.36899	446.043
3.38844	445.326
3.408	444.606
3.42768	443.883
3.44747	443.157
3.46737	442.428
3.48739	441.697
3.50752	440.962
3.52777	440.226
3.54813	439.486
3.56862	438.744
3.58922	437.999
3.60994	437.251
3.63078	436.501
3.65174	435.748
3.67282	434.992
3.69403	434.234
3.71535	433.474
3.7368	432.71
3.75837	431.945
3.78007	431.176
3.80189	430.405
3.82384	429.632
3.84592	428.856
3.86812	428.078
3.89045	427.297
3.91291	426.514
3.9355	425.728
3.95822	424.94
3.98107	424.15
4.00405	423.357
4.02717	422.562
4.05042	421.765
4.0738	420.966
4.09732	420.164
4.12098	419.36
4.14477	418.554
4.16869	417.745
4.19276	416.935
4.21697	416.122
4.24131	415.307
4.2658	414.491
4.29042	413.672
4.31519	412.851
4.3401	412.028
4.36516	411.204
4.39036	410.377
4.4157	409.548
4.4412	408.718
4.46684	407.885
4.49262	407.051
4.51856	406.215
4.54465	405.377
4.57088	404.537
4.59727	403.695
4.62381	402.852
4.6505	402.007
4.67735	401.16
4.70435	400.312
4.73151	399.461
4.75883	398.61
4.7863	397.756
4.81393	396.902
4.84172	396.045
4.86968	395.187
4.89779	394.328
4.92606	393.467
4.9545	392.605
4.9831	391.741
5.01187	390.876
5.04081	390.01
5.06991	389.142
5.09918	388.273
5.12861	387.403
5.15822	386.531
5.188	385.658
5.21795	384.784
5.24807	383.909
5.27837	383.032
5.30884	382.154
5.33949	381.275
5.37032	380.395
5.40132	379.513
5.4325	378.631
5.46387	377.747
5.49541	376.862
5.52713	375.977
5.55904	375.09
5.59114	374.202
5.62341	373.313
5.65588	372.423
5.68853	371.532
5.72137	370.64
5.7544	369.747
5.78762	368.853
5.82103	367.959
5.85464	367.063
5.88844	366.167
5.92243	365.27
5.95662	364.372
5.99101	363.473
6.0256	362.573
6.06038	361.673
6.09537	360.771
6.13056	359.87
6.16595	358.967
6.20155	358.064
6.23735	357.16
6.27336	356.255
6.30957	355.35
6.346	354.444
6.38263	353.538
6.41948	352.631
6.45654	351.724
6.49382	350.816
6.53131	349.907
6.56901	348.999
6.60693	348.089
6.64508	347.179
6.68344	346.269
6.72202	345.358
6.76083	344.447
6.79986	343.536
6.83912	342.624
6.8786	341.712
6.91831	340.8
6.95825	339.887
6.99842	338.974
7.03882	338.06
7.07946	337.146
7.12033	336.231
7.16143	335.316
7.20278	334.401
7.24436	333.486
7.28618	332.571
7.32825	331.655
7.37055	330.74
7.4131	329.824
7.4559	328.909
7.49894	327.993
7.54223	327.077
7.58578	326.162
7.62957	325.247
7.67361	324.331
7.71792	323.416
7.76247	322.501
7.80728	321.586
7.85236	320.672
7.89769	319.757
7.94328	318.843
7.98914	317.929
8.03526	317.015
8.08165	316.102
8.12831	315.189
8.17523	314.276
8.22243	313.364
8.2699	312.452
8.31764	311.54
8.36566	310.629
8.41395	309.718
8.46253	308.808
8.51138	307.898
8.56052	306.988
8.60994	306.079
8.65964	305.171
8.70964	304.263
8.75992	303.356
8.81049	302.449
8.86135	301.543
8.91251	300.637
8.96396	299.732
9.01571	298.827
9.06776	297.923
9.12011	297.02
9.17276	296.117
9.22571	295.215
9.27897	294.313
9.33254	293.412
9.38642	292.511
9.44061	291.611
9.49511	290.712
9.54993	289.813
9.60506	288.915
9.66051	288.018
9.71628	287.121
9.77237	286.224
9.82879	285.328
9.88553	284.433
9.9426	283.538
10	282.644
10.0577	281.75
10.1158	280.856
10.1742	279.963
10.2329	279.071
10.292	278.179
10.3514	277.287
10.4112	276.395
10.4713	275.504
10.5317	274.619
10.5925	273.741
10.6537	272.863
10.7152	271.985
10.7771	271.108
10.8393	270.231
10.9018	269.355
10.9648	268.479
11.0281	267.604
11.0917	266.729
11.1558	265.855
11.2202	264.982
11.285	264.109
11.3501	263.237
11.4156	262.366
11.4815	261.496
11.5478	260.626
11.6145	259.757
11.6815	258.889
11.749	258.022
11.8168	257.156
11.885	256.291
11.9536	255.427
12.0226	254.564
12.0921	253.703
12.1619	252.842
12.2321	251.982
12.3027	251.124
12.3737	250.266
12.4451	249.41
12.517	248.555
12.5893	247.702
12.6619	246.849
12.735	245.998
12.8086	245.149
12.8825	244.301
12.9569	243.454
13.0317	242.608
13.1069	241.765
13.1826	240.922
13.2587	240.081
13.3352	239.242
13.4122	238.404
13.4896	237.567
13.5675	236.733
13.6458	235.9
13.7246	235.068
13.8038	234.238
13.8835	233.41
13.9637	232.583
14.0443	231.757
14.1254	230.93
14.2069	230.105
14.2889	229.282
14.3714	228.461
14.4544	227.642
14.5378	226.824
14.6218	226.008
14.7062	225.194
14.7911	224.381
14.8765	223.571
14.9624	222.762
15.0487	221.956
15.1356	221.151
15.223	220.348
15.3109	219.547
15.3993	218.748
15.4882	217.95
15.5776	217.155
15.6675	216.362
15.758	215.57
15.8489	214.781
15.9404	213.993
16.0325	213.207
16.125	212.424
16.2181	211.642
16.3117	210.862
16.4059	210.084
16.5006	209.307
16.5959	208.533
16.6917	207.76
16.788	206.99
16.885	206.221
16.9824	205.454
17.0805	204.688
17.1791	203.925
17.2783	203.163
17.378	202.402
17.4783	201.644
17.5792	200.887
17.6807	200.131
17.7828	199.377
17.8855	198.624
17.9887	197.874
18.0926	197.125
18.197	196.377
18.3021	195.632
18.4077	194.888
18.514	194.146
18.6209	193.405
18.7284	192.667
18.8365	191.93
18.9452	191.195
19.0546	190.462
19.1646	189.73
19.2752	189.001
19.3865	188.273
19.4984	187.548
19.611	186.824
19.7242	186.102
19.8381	185.382
19.9526	184.664
20.0678	183.948
20.1837	183.233
20.3002	182.521
20.4174	181.81
20.5353	181.102
20.6538	180.395
20.773	179.69
20.893	178.987
21.0136	178.286
21.1349	177.585
21.2569	176.887
21.3796	176.19
21.503	175.495
21.6272	174.802
21.752	174.111
21.8776	173.422
22.0039	172.735
22.1309	172.05
22.2587	171.367
22.3872	170.687
22.5165	170.008
22.6464	169.331
22.7772	168.656
22.9087	167.984
23.0409	167.313
23.1739	166.645
23.3077	165.979
23.4423	165.315
23.5776	164.653
23.7137	163.994
23.8506	163.336
23.9883	162.681
24.1268	162.028
24.2661	161.377
24.4062	160.728
24.5471	160.081
24.6888	159.437
24.8313	158.795
24.9747	158.155
25.1189	157.517
25.2639	156.881
25.4097	156.247
25.5564	155.616
25.704	154.986
25.8523	154.359
26.0016	153.733
26.1517	153.11
26.3027	152.489
26.4545	151.869
26.6073	151.252
26.7609	150.636
26.9153	150.023
27.0707	149.411
27.227	148.801
27.3842	148.192
27.5423	147.586
27.7013	146.981
27.8612	146.377
28.0221	145.776
28.1838	145.18
28.3465	144.585
28.5102	143.992
28.6748	143.401
28.8403	142.811
29.0068	142.223
29.1743	141.636
29.3427	141.051
29.5121	140.468
29.6825	139.886
29.8538	139.307
30.0262	138.729
30.1995	138.152
30.3739	137.578
30.5492	137.005
30.7256	136.435
30.903	135.866
31.0814	135.298
31.2608	134.733
31.4413	134.17
31.6228	133.609
31.8053	133.049
31.989	132.491
32.1736	131.936
32.3594	131.382
32.5462	130.83
32.7341	130.28
32.923	129.733
33.1131	129.187
33.3043	128.643
33.4965	128.101
33.6899	127.561
33.8844	127.023
34.08	126.487
34.2768	125.953
34.4747	125.421
34.6737	124.89
34.8739	124.362
35.0752	123.835
35.2777	123.31
35.4813	122.786
35.6862	122.265
35.8922	121.745
36.0994	121.228
36.3078	120.712
36.5174	120.198
36.7282	119.686
36.9403	119.177
37.1535	118.669
37.368	118.163
37.5837	117.659
37.8007	117.158
38.0189	116.658
38.2384	116.16
38.4592	115.664
38.6812	115.17
38.9045	114.678
39.1291	114.188
39.355	113.7
39.5822	113.214
39.8107	112.73
40.0405	112.247
40.2717	111.767
40.5042	111.288
40.738	110.811
40.9732	110.336
41.2098	109.863
41.4477	109.392
41.6869	108.922
41.9276	108.454
42.1697	107.987
42.4131	107.522
42.658	107.059
42.9042	106.598
43.1519	106.138
43.401	105.68
43.6516	105.223
43.9036	104.768
44.157	104.315
44.412	103.864
44.6684	103.414
44.9262	102.966
45.1856	102.52
45.4465	102.076
45.7088	101.633
45.9727	101.192
46.2381	100.753
46.505	100.315
46.7735	99.8792
47.0435	99.4451
47.3151	99.0127
47.5883	98.582
47.863	98.1529
48.1393	97.7256
48.4172	97.3
48.6968	96.876
48.9779	96.4536
49.2606	96.0329
49.545	95.6138
49.831	95.1963
50.1187	94.7805
50.4081	94.3663
50.6991	93.9538
50.9918	93.5429
51.2861	93.1337
51.5822	92.7261
51.88	92.3202
52.1795	91.9159
52.4807	91.5133
52.7837	91.1123
53.0884	90.713
53.3949	90.3153
53.7032	89.9192
54.0132	89.5247
54.325	89.1318
54.6387	88.7405
54.9541	88.3507
55.2713	87.9625
55.5904	87.5759
55.9114	87.1908
56.2341	86.8071
56.5588	86.425
56.8853	86.0444
57.2137	85.6653
57.544	85.2877
57.8762	84.9116
58.2103	84.5371
58.5464	84.1641
58.8844	83.7926
59.2243	83.4227
59.5662	83.0543
59.9101	82.6874
60.256	82.3221
60.6038	81.9583
60.9537	81.596
61.3056	81.2353
61.6595	80.876
62.0155	80.5183
62.3735	80.1621
62.7336	79.8074
63.0957	79.4541
63.46	79.1024
63.8263	78.752
64.1948	78.4032
64.5654	78.0558
64.9382	77.7098
65.3131	77.3653
65.6901	77.0222
66.0693	76.6805
66.4508	76.3401
66.8344	76.0011
67.2202	75.6635
67.6083	75.3272
67.9986	74.9922
68.3912	74.6585
68.786	74.326
69.1831	73.9948
69.5825	73.6648
69.9842	73.3359
70.3882	73.0076
70.7946	72.6803
71.2033	72.3542
71.6143	72.0293
72.0278	71.7056
72.4436	71.3831
72.8618	71.0618
73.2825	70.7417
73.7055	70.4229
74.131	70.1054
74.559	69.7892
74.9894	69.4742
75.4223	69.1605
75.8578	68.8482
76.2957	68.5372
76.7361	68.2275
77.1792	67.9192
77.6247	67.6122
78.0728	67.3066
78.5236	67.0024
78.9769	66.6996
79.4328	66.3982
79.8914	66.0982
80.3526	65.7995
80.8165	65.5024
81.2831	65.2066
81.7523	64.9122
82.2243	64.6193
82.699	64.3279
83.1764	64.0378
83.6566	63.7492
84.1395	63.4621
84.6253	63.1764
85.1138	62.8921
85.6052	62.6093
86.0994	62.328
86.5964	62.048
87.0964	61.7695
87.5992	61.4924
88.1049	61.2168
88.6135	60.9425
89.1251	60.6697
89.6396	60.3983
90.1571	60.1282
90.6776	59.8596
91.2011	59.5923
91.7276	59.3263
92.2571	59.0617
92.7897	58.7984
93.3254	58.5364
93.8642	58.2757
94.4061	58.0162
94.9511	57.758
95.4993	57.5009
96.0506	57.2451
96.6051	56.9904
97.1628	56.7369
97.7237	56.4844
98.2879	56.2331
98.8553	55.9827
99.426	55.7334
100	55.485
100.577	55.2375
101.158	54.9909
101.742	54.7451
102.329	54.5001
102.92	54.2559
103.514	54.0123
104.112	53.7693
104.713	53.527
105.317	53.2888
105.925	53.0544
106.537	52.8205
107.152	52.5873
107.771	52.3546
108.393	52.1224
109.018	51.8909
109.648	51.66
110.281	51.4297
110.917	51.2001
111.558	50.9711
112.202	50.7427
112.85	50.515
113.501	50.288
114.156	50.0617
114.815	49.8362
115.478	49.6113
116.145	49.3871
116.815	49.1637
117.49	48.9411
118.168	48.7192
118.85	48.4981
119.536	48.2778
120.226	48.0582
120.921	47.8395
121.619	47.6216
122.321	47.4045
123.027	47.1883
123.737	46.9729
124.451	46.7583
125.17	46.5447
125.893	46.3319
126.619	46.1199
127.35	45.9089
128.086	45.6988
128.825	45.4895
129.569	45.2812
130.317	45.0738
131.069	44.8674
131.826	44.6618
132.587	44.4572
133.352	44.2536
134.122	44.0509
134.896	43.8492
135.675	43.6484
136.458	43.4486
137.246	43.2497
138.038	43.0519
138.835	42.855
139.637	42.659
140.443	42.4635
141.254	42.2684
142.069	42.0743
142.889	41.8812
143.714	41.689
144.544	41.4979
145.378	41.3077
146.218	41.1185
147.062	40.9304
147.911	40.7432
148.765	40.557
149.624	40.3717
150.487	40.1875
151.356	40.0043
152.23	39.822
153.109	39.6407
153.993	39.4604
154.882	39.281
155.776	39.1027
156.675	38.9252
157.58	38.7488
158.489	38.5732
159.404	38.3986
160.325	38.2249
161.25	38.0521
162.181	37.8802
163.117	37.7092
164.059	37.5391
165.006	37.3698
165.959	37.2014
166.917	37.0338
167.88	36.867
168.85	36.7009
169.824	36.5357
170.805	36.3712
171.791	36.2074
172.783	36.0443
173.78	35.8819
174.783	35.7201
175.792	35.5589
176.807	35.3983
177.828	35.2383
178.855	35.0789
179.887	34.9202
180.926	34.7621
181.97	34.6046
183.021	34.4478
184.077	34.2917
185.14	34.1361
186.209	33.9813
187.284	33.8271
188.365	33.6735
189.452	33.5206
190.546	33.3684
191.646	33.2168
192.752	33.0659
193.865	32.9156
194.984	32.7661
196.11	32.6171
197.242	32.4689
198.381	32.3213
199.526	32.1743
200.678	32.0281
201.837	31.8824
203.002	31.7375
204.174	31.5931
205.353	31.4494
206.538	31.3064
207.73	31.164
208.93	31.0222
210.136	30.881
211.349	30.7402
212.569	30.6
213.796	30.4604
215.03	30.3214
216.272	30.1831
217.52	30.0454
218.776	29.9083
220.039	29.7719
221.309	29.6361
222.587	29.501
223.872	29.3666
225.165	29.2328
226.464	29.0996
227.772	28.9672
229.087	28.8353
230.409	28.7042
231.739	28.5737
233.077	28.4439
234.423	28.3147
235.776	28.1862
237.137	28.0584
238.506	27.9313
239.883	27.8048
241.268	27.6789
242.661	27.5538
244.062	27.4292
245.471	27.3054
246.888	27.1821
248.313	27.0596
249.747	26.9376
251.189	26.8163
252.639	26.6956
254.097	26.5756
255.564	26.4562
257.04	26.3373
258.523	26.2191
260.016	26.1014
261.517	25.9844
263.027	25.8678
264.545	25.7519
266.073	25.6365
267.609	25.5216
269.153	25.4073
270.707	25.2934
272.27	25.1801
273.842	25.0672
275.423	24.9548
277.013	24.8428
278.612	24.7312
280.221	24.6202
281.838	24.5104
283.465	24.4009
285.102	24.2919
286.748	24.1833
288.403	24.0751
290.068	23.9673
291.743	23.86
293.427	23.753
295.121	23.6465
296.825	23.5404
298.538	23.4348
300.262	23.3296
301.995	23.2248
303.739	23.1204
305.492	23.0166
307.256	22.9131
309.03	22.8101
310.814	22.7076
312.608	22.6055
314.413	22.5039
316.228	22.4028
318.053	22.3021
319.89	22.2019
321.736	22.1021
323.594	22.0029
325.462	21.904
327.341	21.8057
329.23	21.7078
331.131	21.6104
333.043	21.5135
334.965	21.4171
336.899	21.3211
338.844	21.2255
340.8	21.1305
342.768	21.0359
344.747	20.9418
346.737	20.8481
348.739	20.7549
350.752	20.6621
352.777	20.5695
354.813	20.4775
356.862	20.3859
358.922	20.2947
360.994	20.204
363.078	20.1138
365.174	20.024
367.282	19.9346
369.403	19.8457
371.535	19.7573
373.68	19.6694
375.837	19.5818
378.007	19.4948
380.189	19.4082
382.384	19.322
384.592	19.2363
386.812	19.151
389.045	19.0662
391.291	18.9818
393.55	18.8978
395.822	18.8143
398.107	18.7312
400.405	18.6485
402.717	18.5662
405.042	18.4844
407.38	18.4029
409.732	18.3218
412.098	18.2411
414.477	18.1608
416.869	18.0809
419.276	18.0013
421.697	17.922
424.131	17.8431
426.58	17.7646
429.042	17.6864
431.519	17.6086
434.01	17.5311
436.516	17.454
439.036	17.3772
441.57	17.3008
444.12	17.2248
446.684	17.1491
449.262	17.0738
451.856	16.9988
454.465	16.9242
457.088	16.85
459.727	16.7761
462.381	16.7026
465.05	16.6295
467.735	16.5567
470.435	16.4842
473.151	16.4122
475.883	16.3404
478.63	16.269
481.393	16.198
484.172	16.1273
486.968	16.057
489.779	15.987
492.606	15.9173
495.45	15.8479
498.31	15.7789
501.187	15.7103
504.081	15.6419
506.991	15.5739
509.918	15.5062
512.861	15.4389
515.822	15.3719
518.8	15.3053
521.795	15.2389
524.807	15.1729
527.837	15.1072
530.884	15.0419
533.949	14.9769
537.032	14.9122
540.132	14.8478
543.25	14.7838
546.387	14.72
549.541	14.6566
552.713	14.5935
555.904	14.5307
559.114	14.4681
562.341	14.4059
565.588	14.344
568.853	14.2824
572.137	14.221
575.44	14.16
578.762	14.0992
582.103	14.0388
585.464	13.9786
588.844	13.9188
592.243	13.8592
595.662	13.8
599.101	13.741
602.56	13.6824
606.038	13.624
609.537	13.5659
613.056	13.5081
616.595	13.4507
620.155	13.3935
623.735	13.3366
627.336	13.2799
630.957	13.2236
634.6	13.1676
638.263	13.1118
641.948	13.0563
645.654	13.0011
649.382	12.9461
653.131	12.8915
656.901	12.837
660.693	12.7829
664.508	12.729
668.344	12.6754
672.202	12.622
676.083	12.5689
679.986	12.5161
683.912	12.4634
687.86	12.411
691.831	12.3589
695.825	12.307
699.842	12.2552
703.882	12.2036
707.946	12.1522
712.033	12.101
716.143	12.0501
720.278	11.9993
724.436	11.9488
728.618	11.8985
732.825	11.8484
737.055	11.7986
741.31	11.749
745.59	11.6996
749.894	11.6505
754.223	11.6016
758.578	11.553
762.957	11.5046
767.361	11.4564
771.792	11.4085
776.247	11.3609
780.728	11.3134
785.236	11.2663
789.769	11.2194
794.328	11.1728
798.914	11.1264
803.526	11.0802
808.165	11.0344
812.831	10.9888
817.523	10.9434
822.243	10.8983
826.99	10.8535
831.764	10.8089
836.566	10.7646
841.395	10.7206
846.253	10.6768
851.138	10.6333
856.052	10.59
860.994	10.547
865.964	10.5043
870.964	10.4618
875.992	10.4196
881.049	10.3776
886.135	10.3359
891.251	10.2944
896.396	10.2532
901.571	10.2123
906.776	10.1716
912.011	10.1311
917.276	10.0909
922.571	10.0509
927.897	10.0112
933.254	9.97165
938.642	9.93238
944.061	9.89332
949.511	9.85449
954.993	9.81588
960.506	9.77747
966.051	9.73928
971.628	9.70129
977.237	9.66349
982.879	9.62588
988.553	9.58846
994.26	9.55122
1000	9.51415
1005.77	9.47606
1011.58	9.43634
1017.42	9.3968
1023.29	9.35743
1029.2	9.31821
1035.14	9.27915
1041.12	9.24023
1047.13	9.20144
1053.17	9.16337
1059.25	9.12598
1065.37	9.08871
1071.52	9.05156
1077.71	9.01455
1083.93	8.97766
1090.18	8.9409
1096.48	8.90427
1102.81	8.86778
1109.17	8.83143
1115.58	8.79521
1122.02	8.75913
1128.5	8.72319
1135.01	8.6874
1141.56	8.65175
1148.15	8.61624
1154.78	8.58089
1161.45	8.54568
1168.15	8.51062
1174.9	8.47572
1181.68	8.44097
1188.5	8.40638
1195.36	8.37194
1202.26	8.33766
1209.21	8.30354
1216.19	8.26958
1223.21	8.23579
1230.27	8.20216
1237.37	8.1687
1244.51	8.1354
1251.7	8.10227
1258.93	8.06931
1266.19	8.03652
1273.5	8.00391
1280.86	7.97146
1288.25	7.93919
1295.69	7.9071
1303.17	7.87518
1310.69	7.84344
1318.26	7.81188
1325.87	7.78049
1333.52	7.74929
1341.22	7.71826
1348.96	7.68742
1356.75	7.65676
1364.58	7.62628
1372.46	7.59598
1380.38	7.56586
1388.35	7.53593
1396.37	7.50618
1404.43	7.47652
1412.54	7.44696
1420.69	7.41759
1428.89	7.3884
1437.14	7.35939
1445.44	7.33057
1453.78	7.30193
1462.18	7.27347
1470.62	7.2452
1479.11	7.21711
1487.65	7.1892
1496.24	7.16147
1504.87	7.13393
1513.56	7.10656
1522.3	7.07938
1531.09	7.05238
1539.93	7.02555
1548.82	6.9989
1557.76	6.97243
1566.75	6.94613
1575.8	6.92001
1584.89	6.89405
1594.04	6.86827
1603.25	6.84265
1612.5	6.8172
1621.81	6.79192
1631.17	6.76679
1640.59	6.74182
1650.06	6.71701
1659.59	6.69235
1669.17	6.66784
1678.8	6.64347
1688.5	6.61925
1698.24	6.59517
1708.05	6.57123
1717.91	6.54742
1727.83	6.52373
1737.8	6.50017
1747.83	6.47672
1757.92	6.45339
1768.07	6.43016
1778.28	6.40705
1788.55	6.38405
1798.87	6.36116
1809.26	6.3384
1819.7	6.31574
1830.21	6.29321
1840.77	6.27079
1851.4	6.24849
1862.09	6.2263
1872.84	6.20424
1883.65	6.18229
1894.52	6.16046
1905.46	6.13875
1916.46	6.11715
1927.52	6.09568
1938.65	6.07432
1949.84	6.05309
1961.1	6.03197
1972.42	6.01096
1983.81	5.99008
1995.26	5.96931
2006.78	5.94866
2018.37	5.92813
2030.02	5.90771
2041.74	5.8874
2053.53	5.86721
2065.38	5.84714
2077.3	5.82717
2089.3	5.80732
2101.36	5.78757
2113.49	5.76789
2125.69	5.74833
2137.96	5.72887
2150.3	5.70952
2162.72	5.69029
2175.2	5.67116
2187.76	5.65215
2200.39	5.63326
2213.09	5.61447
2225.87	5.5958
2238.72	5.57724
2251.65	5.5588
2264.64	5.54047
2277.72	5.52226
2290.87	5.50416
2304.09	5.48617
2317.39	5.4683
2330.77	5.45055
2344.23	5.43291
2357.76	5.41538
2371.37	5.39797
2385.06	5.38067
2398.83	5.36349
2412.68	5.34642
2426.61	5.32946
2440.62	5.31261
2454.71	5.29588
2468.88	5.27926
2483.13	5.26274
2497.47	5.24634
2511.89	5.23004
2526.39	5.21385
2540.97	5.19777
2555.64	5.18179
2570.4	5.16591
2585.23	5.15014
2600.16	5.13446
2615.17	5.11889
2630.27	5.10341
2645.45	5.08803
2660.73	5.07274
2676.09	5.05754
2691.53	5.04243
2707.07	5.02741
2722.7	5.01247
2738.42	4.99761
2754.23	4.98283
2770.13	4.96813
2786.12	4.9535
2802.21	4.93896
2818.38	4.92461
2834.65	4.91033
2851.02	4.89612
2867.48	4.88198
2884.03	4.86791
2900.68	4.85391
2917.43	4.83999
2934.27	4.82613
2951.21	4.81235
2968.25	4.79864
2985.38	4.78501
3002.62	4.77145
3019.95	4.75796
3037.39	4.74455
3054.92	4.73122
3072.56	4.71796
3090.3	4.70477
3108.14	4.69167
3126.08	4.67864
3144.13	4.66569
3162.28	4.65281
3180.53	4.64001
3198.9	4.62729
3217.36	4.61465
3235.94	4.60209
3254.62	4.5896
3273.41	4.57719
3292.3	4.56486
3311.31	4.55261
3330.43	4.54044
3349.65	4.52834
3368.99	4.51632
3388.44	4.50438
3408	4.49252
3427.68	4.48073
3447.47	4.46902
3467.37	4.45738
3487.39	4.44582
3507.52	4.43432
3527.77	4.42288
3548.13	4.41152
3568.62	4.40022
3589.22	4.38901
3609.94	4.37786
3630.78	4.3668
3651.74	4.3558
3672.82	4.34488
3694.03	4.33404
3715.35	4.32327
3736.8	4.31257
3758.37	4.30195
3780.07	4.2914
3801.89	4.28093
3823.84	4.27053
3845.92	4.2602
3868.12	4.24994
3890.45	4.23975
3912.91	4.22964
3935.5	4.21959
3958.22	4.20962
3981.07	4.19971
4004.05	4.18987
4027.17	4.1801
4050.42	4.1704
4073.8	4.16076
4097.32	4.15118
4120.98	4.14167
4144.77	4.13221
4168.69	4.12282
4192.76	4.11349
4216.97	4.10421
4241.31	4.09499
4265.8	4.08583
4290.42	4.07672
4315.19	4.06768
4340.1	4.05869
4365.16	4.04975
4390.36	4.04088
4415.7	4.03206
4441.2	4.02331
4466.84	4.01461
4492.62	4.00596
4518.56	3.99738
4544.65	3.98886
4570.88	3.98039
4597.27	3.97198
4623.81	3.96363
4650.5	3.95534
4677.35	3.9471
4704.35	3.93892
4731.51	3.9308
4758.83	3.92273
4786.3	3.91472
4813.93	3.90677
4841.72	3.89887
4869.68	3.89103
4897.79	3.88324
4926.06	3.8755
4954.5	3.86781
4983.1	3.86018
5011.87	3.85261
5040.81	3.84509
5069.91	3.83762
5099.18	3.8302
5128.61	3.82284
5158.22	3.81553
5188	3.80827
5217.95	3.80107
5248.07	3.79391
5278.37	3.78681
5308.84	3.77977
5339.49	3.77277
5370.32	3.76583
5401.32	3.75893
5432.5	3.75209
5463.87	3.7453
5495.41	3.73855
5527.13	3.73186
5559.04	3.72521
5591.14	3.71861
5623.41	3.71206
5655.88	3.70555
5688.53	3.69909
5721.37	3.69268
5754.4	3.68631
5787.62	3.67999
5821.03	3.67372
5854.64	3.66749
5888.44	3.6613
5922.43	3.65517
5956.62	3.64908
5991.01	3.64303
6025.6	3.63703
6060.38	3.63107
6095.37	3.62516
6130.56	3.61929
6165.95	3.61346
6201.55	3.60768
6237.35	3.60194
6273.36	3.59624
6309.57	3.59058
6346	3.58496
6382.63	3.57938
6419.48	3.57385
6456.54	3.56834
6493.82	3.56288
6531.31	3.55745
6569.01	3.55206
6606.93	3.54671
6645.08	3.54138
6683.44	3.53609
6722.02	3.53083
6760.83	3.52561
6799.86	3.52041
6839.12	3.51523
6878.6	3.51009
6918.31	3.50497
6958.25	3.49987
6998.42	3.49479
7038.82	3.48959
7079.46	3.48442
7120.33	3.47929
7161.43	3.4742
7202.78	3.46915
7244.36	3.46414
7286.18	3.45917
7328.25	3.45423
7370.55	3.44934
7413.1	3.44448
7455.9	3.43966
7498.94	3.43488
7542.23	3.43013
7585.78	3.42542
7629.57	3.42075
7673.61	3.41612
7717.92	3.41152
7762.47	3.40696
7807.28	3.40243
7852.36	3.39794
7897.69	3.39349
7943.28	3.38907
7989.14	3.38469
8035.26	3.38034
8081.65	3.37603
8128.31	3.37176
8175.23	3.36751
8222.43	3.36331
8269.9	3.35913
8317.64	3.35499
8365.66	3.35089
8413.95	3.34681
8462.53	3.34278
8511.38	3.33877
8560.52	3.3348
8609.94	3.33086
8659.64	3.32695
8709.64	3.32308
8759.92	3.31924
8810.49	3.31543
8861.35	3.31165
8912.51	3.3079
8963.96	3.30419
9015.71	3.30051
9067.76	3.29685
9120.11	3.29323
9172.76	3.28965
9225.71	3.28609
9278.97	3.28256
9332.54	3.27906
9386.42	3.27559
9440.61	3.27216
9495.11	3.26875
9549.93	3.26537
9605.06	3.26202
9660.51	3.2587
9716.28	3.25541
9772.37	3.25215
9828.79	3.24892
9885.53	3.24572
9942.6	3.24254
10000	3.2394
10057.7	3.23628
10115.8	3.23319
10174.2	3.23012
10232.9	3.22709
10292	3.22408
10351.4	3.2211
10411.2	3.21815
10471.3	3.21522
10531.7	3.21232
10592.5	3.20945
10653.7	3.20661
10715.2	3.20379
10777.1	3.20099
10839.3	3.19823
10901.8	3.19549
10964.8	3.19277
11028.1	3.19008
11091.7	3.18742
11155.8	3.18478
11220.2	3.18217
11285	3.17958
11350.1	3.17701
11415.6	3.17447
11481.5	3.17196
11547.8	3.16947
11614.5	3.167
11681.5	3.16456
11749	3.16215
11816.8	3.15975
11885	3.15738
11953.6	3.15503
12022.6	3.15271
12092.1	3.15041
12161.9	3.14813
12232.1	3.14588
12302.7	3.14365
12373.7	3.14144
12445.1	3.13925
12517	3.13709
12589.3	3.13495
12661.9	3.13283
12735	3.13073
12808.6	3.12866
12882.5	3.1266
12956.9	3.12457
13031.7	3.12256
13106.9	3.12057
13182.6	3.1186
13258.7	3.11666
13335.2	3.11473
13412.2	3.11282
13489.6	3.11094
13567.5	3.10907
13645.8	3.10723
13724.6	3.1054
13803.8	3.1036
13883.5	3.10182
13963.7	3.10005
14044.3	3.09831
14125.4	3.09658
14206.9	3.09488
14288.9	3.09319
14371.4	3.09152
14454.4	3.08988
14537.8	3.08825
14621.8	3.08664
14706.2	3.08505
14791.1	3.08347
14876.5	3.08192
14962.4	3.08038
15048.7	3.07886
15135.6	3.07736
15223	3.07588
15310.9	3.07442
15399.3	3.07297
15488.2	3.07154
15577.6	3.07013
15667.5	3.06874
15758	3.06736
15848.9	3.066
15940.4	3.06466
16032.5	3.06333
16125	3.06202
16218.1	3.06073
16311.7	3.05946
16405.9	3.0582
16500.6	3.05695
16595.9	3.05573
16691.7	3.05452
16788	3.05332
16885	3.05214
16982.4	3.05098
17080.5	3.04983
17179.1	3.0487
17278.3	3.04758
17378	3.04648
17478.3	3.0454
17579.2	3.04433
17680.7	3.04327
17782.8	3.04223
17885.5	3.0412
17988.7	3.04019
18092.6	3.03919
18197	3.03821
18302.1	3.03724
18407.7	3.03629
18514	3.03535
18620.9	3.03442
18728.4	3.03351
18836.5	3.03261
18945.2	3.03173
19054.6	3.03086
19164.6	3.03
19275.2	3.02916
19386.5	3.02833
19498.4	3.02751
19611	3.02671
19724.2	3.02592
19838.1	3.02514
19952.6	3.02437
20067.8	3.02362
20183.7	3.02288
20300.2	3.02216
20417.4	3.02144
20535.3	3.02074
20653.8	3.02005
20773	3.01937
20893	3.0187
21013.6	3.01805
21134.9	3.01741
21256.9	3.01678
21379.6	3.01616
21503	3.01555
21627.2	3.01496
21752	3.01438
21877.6	3.0138
22003.9	3.01324
22130.9	3.01269
22258.7	3.01215
22387.2	3.01162
22516.5	3.01111
22646.4	3.0106
22777.2	3.01011
22908.7	3.00962
23040.9	3.00915
23173.9	3.00868
23307.7	3.00823
23442.3	3.00779
23577.6	3.00735
23713.7	3.00693
23850.6	3.00652
23988.3	3.00611
24126.8	3.00572
24266.1	3.00534
24406.2	3.00497
24547.1	3.0046
24688.8	3.00425
24831.3	3.0039
24974.7	3.00357
25118.9	3.00324
25263.9	3.00292
25409.7	3.00262
25556.4	3.00232
25704	3.00203
25852.3	3.00175
26001.6	3.00148
26151.7	3.00121
26302.7	3.00096
26454.5	3.00071
26607.3	3.00048
26760.9	3.00025
26915.3	3.00003
27070.7	2.99982
27227	2.99961
27384.2	2.99942
27542.3	2.99923
27701.3	2.99905
27861.2	2.99888
28022.1	2.99872
28183.8	2.99856
28346.5	2.99841
28510.2	2.99827
28674.8	2.99814
28840.3	2.99801
29006.8	2.9979
29174.3	2.99779
29342.7	2.99768
29512.1	2.99759
29682.5	2.9975
29853.8	2.99742
30026.2	2.99734
30199.5	2.99728
30373.9	2.99721
30549.2	2.99716
30725.6	2.99711
30903	2.99707
31081.4	2.99704
31260.8	2.99701
31441.3	2.99699
31622.8	2.99698
31805.3	2.99697
31989	2.99697
32173.6	2.99698
32359.4	2.99699
32546.2	2.99701
32734.1	2.99703
32923	2.99706
33113.1	2.9971
33304.3	2.99714
33496.5	2.99718
33689.9	2.99724
33884.4	2.9973
34080	2.99736
34276.8	2.99743
34474.7	2.99751
34673.7	2.99759
34873.9	2.99768
35075.2	2.99777
35277.7	2.99787
35481.3	2.99797
35686.2	2.99808
35892.2	2.99819
36099.4	2.99831
36307.8	2.99843
36517.4	2.99856
36728.2	2.99869
36940.3	2.99883
37153.5	2.99898
37368	2.99912
37583.7	2.99928
37800.7	2.99943
38018.9	2.9996
38238.4	2.99976
38459.2	2.99993
38681.2	3.00011
38904.5	3.00029
39129.1	3.00047
39355	3.00066
39582.2	3.00086
39810.7	3.00105
40040.5	3.00125
40271.7	3.00146
40504.2	3.00167
40738	3.00188
40973.2	3.0021
41209.8	3.00232
41447.7	3.00255
41686.9	3.00278
41927.6	3.00301
42169.7	3.00325
42413.1	3.00349
42658	3.00373
42904.2	3.00398
43151.9	3.00423
43401	3.00449
43651.6	3.00475
43903.6	3.00501
44157	3.00527
44412	3.00554
44668.4	3.00582
44926.2	3.00609
45185.6	3.00637
45446.5	3.00665
45708.8	3.00694
45972.7	3.00722
46238.1	3.00752
46505	3.00781
46773.5	3.00811
47043.5	3.00841
47315.1	3.00871
47588.3	3.00902
47863	3.00932
48139.3	3.00964
48417.2	3.00995
48696.8	3.01027
48977.9	3.01059
49260.6	3.01091
49545	3.01123
49831	3.01156
50118.7	3.01189
50408.1	3.01222
50699.1	3.01256
50991.8	3.0129
51286.1	3.01324
51582.2	3.01358
51880	3.01392
52179.5	3.01427
52480.7	3.01462
52783.7	3.01497
53088.4	3.01532
53394.9	3.01568
53703.2	3.01604
54013.2	3.0164
54325	3.01676
54638.7	3.01712
54954.1	3.01749
55271.3	3.01785
55590.4	3.01822
55911.4	3.01859
56234.1	3.01897
56558.8	3.01934
56885.3	3.01972
57213.7	3.0201
57544	3.02048
57876.2	3.02086
58210.3	3.02124
58546.4	3.02163
58884.4	3.02201
59224.3	3.0224
59566.2	3.02279
59910.1	3.02318
60256	3.02358
60603.8	3.02397
60953.7	3.02437
61305.6	3.02476
61659.5	3.02516
62015.5	3.02556
62373.5	3.02596
62733.6	3.02637
63095.7	3.02677
63460	3.02717
63826.3	3.02758
64194.8	3.02799
64565.4	3.0284
64938.2	3.02881
65313.1	3.02922
65690.1	3.02963
66069.3	3.03004
66450.8	3.03045
66834.4	3.03087
67220.2	3.03128
67608.3	3.0317
67998.6	3.03212
68391.2	3.03254
68786	3.03296
69183.1	3.03338
69582.5	3.0338
69984.2	3.03422
70388.2	3.03464
70794.6	3.03507
71203.3	3.03549
71614.3	3.03592
72027.8	3.03634
72443.6	3.03677
72861.8	3.03719
73282.5	3.03762
73705.5	3.03805
74131	3.03848
74559	3.03891
74989.4	3.03934
75422.3	3.03977
75857.8	3.0402
76295.7	3.04063
76736.1	3.04106
77179.2	3.0415
77624.7	3.04193
78072.8	3.04236
78523.6	3.0428
78976.9	3.04323
79432.8	3.04366
79891.4	3.0441
80352.6	3.04453
80816.5	3.04497
81283.1	3.04541
81752.3	3.04584
82224.3	3.04628
82699	3.04671
83176.4	3.04715
83656.6	3.04759
84139.5	3.04802
84625.3	3.04846
85113.8	3.0489
85605.2	3.04934
86099.4	3.04977
86596.4	3.05021
87096.4	3.05065
87599.2	3.05109
88104.9	3.05152
88613.5	3.05196
89125.1	3.0524
89639.6	3.05284
90157.1	3.05327
90677.6	3.05371
91201.1	3.05415
91727.6	3.05459
92257.1	3.05502
92789.7	3.05546
93325.4	3.0559
93864.2	3.05634
94406.1	3.05677
94951.1	3.05721
95499.3	3.05765
96050.6	3.05808
96605.1	3.05852
97162.8	3.05896
97723.7	3.05939
98287.9	3.05983
98855.3	3.06026
99426	3.0607
100000	3.06113
100577	3.06157
101158	3.062
101742	3.06244
102329	3.06287
102920	3.0633
103514	3.06374
104112	3.06417
104713	3.0646
105317	3.06504
105925	3.06547
106537	3.0659
107152	3.06633
107771	3.06676
108393	3.06719
109018	3.06762
109648	3.06805
110281	3.06848
110917	3.0689
111558	3.06933
112202	3.06976
112850	3.07019
113501	3.07061
114156	3.07104
114815	3.07146
115478	3.07189
116145	3.07231
116815	3.07274
117490	3.07316
118168	3.07358
118850	3.074
119536	3.07442
120226	3.07484
120921	3.07526
121619	3.07568
122321	3.0761
123027	3.07652
123737	3.07694
124451	3.07735
125170	3.07777
125893	3.07819
126619	3.0786
127350	3.07902
128086	3.07943
128825	3.07984
129569	3.08025
130317	3.08066
131069	3.08107
131826	3.08148
132587	3.08189
133352	3.0823
134122	3.08271
134896	3.08312
135675	3.08352
136458	3.08393
137246	3.08433
138038	3.08474
138835	3.08514
139637	3.08554
140443	3.08594
141254	3.08634
142069	3.08674
142889	3.08714
143714	3.08754
144544	3.08794
145378	3.08833
146218	3.08873
147062	3.08912
147911	3.08952
148765	3.08991
149624	3.0903
150487	3.09069
151356	3.09108
152230	3.09147
153109	3.09186
153993	3.09225
154882	3.09264
155776	3.09302
156675	3.09341
157580	3.09379
158489	3.09417
159404	3.09456
160325	3.09494
161250	3.09532
162181	3.0957
163117	3.09608
164059	3.09645
165006	3.09683
165959	3.09721
166917	3.09758
167880	3.09795
168850	3.09833
169824	3.0987
170805	3.09907
171791	3.09944
172783	3.09981
173780	3.10018
174783	3.10054
175792	3.10091
176807	3.10127
177828	3.10164
178855	3.102
179887	3.10236
180926	3.10273
181970	3.10309
183021	3.10344
184077	3.1038
185140	3.10416
186209	3.10452
187284	3.10487
188365	3.10522
189452	3.10558
190546	3.10593
191646	3.10628
192752	3.10663
193865	3.10698
194984	3.10733
196110	3.10767
197242	3.10802
198381	3.10836
199526	3.10871
200678	3.10905
201837	3.10939
203002	3.10973
204174	3.11007
205353	3.11041
206538	3.11075
207730	3.11108
208930	3.11142
210136	3.11175
211349	3.11209
212569	3.11242
213796	3.11275
215030	3.11308
216272	3.11341
217520	3.11374
218776	3.11406
220039	3.11439
221309	3.11471
222587	3.11504
223872	3.11536
225165	3.11568
226464	3.116
227772	3.11632
229087	3.11664
230409	3.11695
231739	3.11727
233077	3.11759
234423	3.1179
235776	3.11821
237137	3.11852
238506	3.11883
239883	3.11914
241268	3.11945
242661	3.11976
244062	3.12007
245471	3.12037
246888	3.12067
248313	3.12098
249747	3.12128
251189	3.12158
252639	3.12188
254097	3.12218
255564	3.12248
257040	3.12277
258523	3.12307
260016	3.12336
261517	3.12366
263027	3.12395
264545	3.12424
266073	3.12453
267609	3.12482
269153	3.1251
270707	3.12539
272270	3.12568
273842	3.12596
275423	3.12624
277013	3.12653
278612	3.12681
280221	3.12709
281838	3.12737
283465	3.12765
285102	3.12792
286748	3.1282
288403	3.12847
290068	3.12875
291743	3.12902
293427	3.12929
295121	3.12956
296825	3.12983
298538	3.1301
300262	3.13037
301995	3.13063
303739	3.1309
305492	3.13116
307256	3.13142
309030	3.13168
310814	3.13194
312608	3.1322
314413	3.13246
316228	3.13272
318053	3.13298
319890	3.13323
321736	3.13349
323594	3.13374
325462	3.13399
327341	3.13424
329230	3.13449
331131	3.13474
333043	3.13499
334965	3.13524
336899	3.13548
338844	3.13573
340800	3.13597
342768	3.13621
344747	3.13645
346737	3.13669
348739	3.13693
350752	3.13717
352777	3.13741
354813	3.13764
356862	3.13788
358922	3.13811
360994	3.13835
363078	3.13858
365174	3.13881
367282	3.13904
369403	3.13927
371535	3.13949
373680	3.13972
375837	3.13995
378007	3.14017
380189	3.14039
382384	3.14062
384592	3.14084
386812	3.14106
389045	3.14128
391291	3.1415
393550	3.14171
395822	3.14193
398107	3.14215
400405	3.14236
402717	3.14257
405042	3.14278
407380	3.143
409732	3.14321
412098	3.14342
414477	3.14362
416869	3.14383
419276	3.14404
421697	3.14424
424131	3.14445
426580	3.14465
429042	3.14485
431519	3.14505
434010	3.14525
436516	3.14545
439036	3.14565
441570	3.14585
444120	3.14604
446684	3.14624
449262	3.14643
451856	3.14662
454465	3.14682
457088	3.14701
459727	3.1472
462381	3.14739
465050	3.14758
467735	3.14776
470435	3.14795
473151	3.14813
475883	3.14832
478630	3.1485
481393	3.14868
484172	3.14887
486968	3.14905
489779	3.14923
492606	3.1494
495450	3.14958
498310	3.14976
501187	3.14993
504081	3.15011
506991	3.15028
509918	3.15046
512861	3.15063
515822	3.1508
518800	3.15097
521795	3.15114
524807	3.15131
527837	3.15147
530884	3.15164
533949	3.15181
537032	3.15197
540132	3.15213
543250	3.1523
546387	3.15246
549541	3.15262
552713	3.15278
555904	3.15294
559114	3.1531
562341	3.15325
565588	3.15341
568853	3.15357
572137	3.15372
575440	3.15387
578762	3.15403
582103	3.15418
585464	3.15433
588844	3.15448
592243	3.15463
595662	3.15478
599101	3.15492
602560	3.15507
606038	3.15522
609537	3.15536
613056	3.1555
616595	3.15565
620155	3.15579
623735	3.15593
627336	3.15607
630957	3.15621
634600	3.15635
638263	3.15649
641948	3.15663
645654	3.15676
649382	3.1569
653131	3.15703
656901	3.15717
660693	3.1573
664508	3.15743
668344	3.15756
672202	3.15769
676083	3.15782
679986	3.15795
683912	3.15808
687860	3.1582
691831	3.15833
695825	3.15846
699842	3.15858
703882	3.1587
707946	3.15883
712033	3.15895
716143	3.15907
720278	3.15919
724436	3.15931
728618	3.15943
732825	3.15955
737055	3.15967
741310	3.15978
745590	3.1599
749894	3.16001
754223	3.16013
758578	3.16024
762957	3.16035
767361	3.16047
771792	3.16058
776247	3.16069
780728	3.1608
785236	3.16091
789769	3.16102
794328	3.16112
798914	3.16123
803526	3.16134
808165	3.16144
812831	3.16154
817523	3.16165
822243	3.16175
826990	3.16185
831764	3.16196
836566	3.16206
841395	3.16216
846253	3.16226
851138	3.16235
856052	3.16245
860994	3.16255
865964	3.16265
870964	3.16274
875992	3.16284
881049	3.16293
886135	3.16302
891251	3.16312
896396	3.16321
901571	3.1633
906776	3.16339
912011	3.16348
917276	3.16357
922571	3.16366
927897	3.16375
933254	3.16384
938642	3.16392
944061	3.16401
949511	3.16409
954993	3.16418
960506	3.16426
966051	3.16435
971628	3.16443
977237	3.16451
982879	3.16459
988553	3.16467
994260	3.16475
1e+06	3.16483
1.00577e+06	3.16491
1.01158e+06	3.16499
1.01742e+06	3.16507
1.02329e+06	3.16514
1.0292e+06	3.16522
1.03514e+06	3.1653
1.04112e+06	3.16537
1.04713e+06	3.16544
1.05317e+06	3.16552
1.05925e+06	3.16559
1.06537e+06	3.16566
1.07152e+06	3.16574
1.07771e+06	3.16581
1.08393e+06	3.16588
1.09018e+06	3.16595
1.09648e+06	3.16602
1.10281e+06	3.16609
1.10917e+06	3.16615
1.11558e+06	3.16622
1.12202e+06	3.16629
1.1285e+06	3.16636
1.13501e+06	3.16642
1.14156e+06	3.16649
1.14815e+06	3.16655
1.15478e+06	3.16662
1.16145e+06	3.16668
1.16815e+06	3.16674
1.1749e+06	3.16681
1.18168e+06	3.16687
1.1885e+06	3.16693
1.19536e+06	3.16699
1.20226e+06	3.16705
1.20921e+06	3.16711
1.21619e+06	3.16717
1.22321e+06	3.16723
1.23027e+06	3.16729
1.23737e+06	3.16734
1.24451e+06	3.1674
1.2517e+06	3.16746
1.25893e+06	3.16751
1.26619e+06	3.16757
1.2735e+06	3.16762
1.28086e+06	3.16768
1.28825e+06	3.16773
1.29569e+06	3.16778
1.30317e+06	3.16784
1.31069e+06	3.16789
1.31826e+06	3.16794
1.32587e+06	3.16799
1.33352e+06	3.16804
1.34122e+06	3.16809
1.34896e+06	3.16814
1.35675e+06	3.16819
1.36458e+06	3.16824
1.37246e+06	3.16829
1.38038e+06	3.16833
1.38835e+06	3.16838
1.39637e+06	3.16843
1.40443e+06	3.16847
1.41254e+06	3.16852
1.42069e+06	3.16857
1.42889e+06	3.16861
1.43714e+06	3.16865
1.44544e+06	3.1687
1.45378e+06	3.16874
1.46218e+06	3.16878
1.47062e+06	3.16883
1.47911e+06	3.16887
1.48765e+06	3.16891
1.49624e+06	3.16895
1.50487e+06	3.16899
1.51356e+06	3.16903
1.5223e+06	3.16907
1.53109e+06	3.16911
1.53993e+06	3.16915
1.54882e+06	3.16919
1.55776e+06	3.16923
1.56675e+06	3.16926
1.5758e+06	3.1693
1.58489e+06	3.16934
1.59404e+06	3.16937
1.60325e+06	3.16941
1.6125e+06	3.16944
1.62181e+06	3.16948
1.63117e+06	3.16951
1.64059e+06	3.16955
1.65006e+06	3.16958
1.65959e+06	3.16961
1.66917e+06	3.16965
1.6788e+06	3.16968
1.6885e+06	3.16971
1.69824e+06	3.16974
1.70805e+06	3.16977
1.71791e+06	3.16981
1.72783e+06	3.16984
1.7378e+06	3.16987
1.74783e+06	3.1699
1.75792e+06	3.16992
1.76807e+06	3.16995
1.77828e+06	3.16998
1.78855e+06	3.17001
1.79887e+06	3.17004
1.80926e+06	3.17007
1.8197e+06	3.17009
1.83021e+06	3.17012
1.84077e+06	3.17015
1.8514e+06	3.17017
1.86209e+06	3.1702
1.87284e+06	3.17022
1.88365e+06	3.17025
1.89452e+06	3.17027
1.90546e+06	3.1703
1.91646e+06	3.17032
1.92752e+06	3.17034
1.93865e+06	3.17037
1.94984e+06	3.17039
1.9611e+06	3.17041
1.97242e+06	3.17044
1.98381e+06	3.17046
1.99526e+06	3.17048
2.00678e+06	3.1705
2.01837e+06	3.17052
2.03002e+06	3.17054
2.04174e+06	3.17056
2.05353e+06	3.17058
2.06538e+06	3.1706
2.0773e+06	3.17062
2.0893e+06	3.17064
2.10136e+06	3.17066
2.11349e+06	3.17068
2.12569e+06	3.1707
2.13796e+06	3.17071
2.1503e+06	3.17073
2.16272e+06	3.17075
2.1752e+06	3.17077
2.18776e+06	3.17078
2.20039e+06	3.1708
2.21309e+06	3.17082
2.22587e+06	3.17083
2.23872e+06	3.17085
2.25165e+06	3.17086
2.26464e+06	3.17088
2.27772e+06	3.17089
2.29087e+06	3.17091
2.30409e+06	3.17092
2.31739e+06	3.17094
2.33077e+06	3.17095
2.34423e+06	3.17096
2.35776e+06	3.17098
2.37137e+06	3.17099
2.38506e+06	3.171
2.39883e+06	3.17102
2.41268e+06	3.17103
2.42661e+06	3.17104
2.44062e+06	3.17105
2.45471e+06	3.17106
2.46888e+06	3.17108
2.48313e+06	3.17109
2.49747e+06	3.1711
2.51189e+06	3.17111
2.52639e+06	3.17112
2.54097e+06	3.17113
2.55564e+06	3.17114
2.5704e+06	3.17115
2.58523e+06	3.17116
2.60016e+06	3.17117
2.61517e+06	3.17118
2.63027e+06	3.17119
2.64545e+06	3.1712
2.66073e+06	3.1712
2.67609e+06	3.17121
2.69153e+06	3.17122
2.70707e+06	3.17123
2.7227e+06	3.17124
2.73842e+06	3.17125
2.75423e+06	3.17125
2.77013e+06	3.17126
2.78612e+06	3.17127
2.80221e+06	3.17127
2.81838e+06	3.17128
2.83465e+06	3.17129
2.85102e+06	3.17129
2.86748e+06	3.1713
2.88403e+06	3.17131
2.90068e+06	3.17131
2.91743e+06	3.17132
2.93427e+06	3.17132
2.95121e+06	3.17133
2.96825e+06	3.17134
2.98538e+06	3.17134
3.00262e+06	3.17135
3.01995e+06	3.17135
3.03739e+06	3.17136
3.05492e+06	3.17136
3.07256e+06	3.17136
3.0903e+06	3.17137
3.10814e+06	3.17137
3.12608e+06	3.17138
3.14413e+06	3.17138
3.16228e+06	3.17138
3.18053e+06	3.17139
3.1989e+06	3.17139
3.21736e+06	3.1714
3.23594e+06	3.1714
3.25462e+06	3.1714
3.27341e+06	3.1714
3.2923e+06	3.17141
3.31131e+06	3.17141
3.33043e+06	3.17141
3.34965e+06	3.17142
3.36899e+06	3.17142
3.38844e+06	3.17142
3.408e+06	3.17142
3.42768e+06	3.17143
3.44747e+06	3.17143
3.46737e+06	3.17143
3.48739e+06	3.17143
3.50752e+06	3.17143
3.52777e+06	3.17144
3.54813e+06	3.17144
3.56862e+06	3.17144
3.58922e+06	3.17144
3.60994e+06	3.17144
3.63078e+06	3.17144
3.65174e+06	3.17144
3.67282e+06	3.17144
3.69403e+06	3.17145
3.71535e+06	3.17145
3.7368e+06	3.17145
3.75837e+06	3.17145
3.78007e+06	3.17145
3.80189e+06	3.17145
3.82384e+06	3.17145
3.84592e+06	3.17145
3.86812e+06	3.17145
3.89045e+06	3.17145
3.91291e+06	3.17145
3.9355e+06	3.17145
3.95822e+06	3.17145
3.98107e+06	3.17145
4.00405e+06	3.17145
4.02717e+06	3.17146
4.05042e+06	3.17146
4.0738e+06	3.17146
4.09732e+06	3.17146
4.12098e+06	3.17146
4.14477e+06	3.17146
4.16869e+06	3.17146
4.19276e+06	3.17146
4.21697e+06	3.17146
4.24131e+06	3.17146
4.2658e+06	3.17146
4.29042e+06	3.17146
4.31519e+06	3.17145
4.3401e+06	3.17145
4.36516e+06	3.17145
4.39036e+06	3.17145
4.4157e+06	3.17145
4.4412e+06	3.17145
4.46684e+06	3.17145
4.49262e+06	3.17145
4.51856e+06	3.17145
4.54465e+06	3.17145
4.57088e+06	3.17145
4.59727e+06	3.17145
4.62381e+06	3.17145
4.6505e+06	3.17145
4.67735e+06	3.17145
4.70435e+06	3.17145
4.73151e+06	3.17145
4.75883e+06	3.17145
4.7863e+06	3.17145
4.81393e+06	3.17145
4.84172e+06	3.17145
4.86968e+06	3.17145
4.89779e+06	3.17145
4.92606e+06	3.17145
4.9545e+06	3.17145
4.9831e+06	3.17145
5.01187e+06	3.17145
5.04081e+06	3.17145
5.06991e+06	3.17145
5.09918e+06	3.17145
5.12861e+06	3.17144
5.15822e+06	3.17144
5.188e+06	3.17144
5.21795e+06	3.17144
5.24807e+06	3.17144
5.27837e+06	3.17144
5.30884e+06	3.17144
5.33949e+06	3.17144
5.37032e+06	3.17144
5.40132e+06	3.17144
5.4325e+06	3.17144
5.46387e+06	3.17144
5.49541e+06	3.17144
5.52713e+06	3.17144
5.55904e+06	3.17144
5.59114e+06	3.17144
5.62341e+06	3.17144
5.65588e+06	3.17144
5.68853e+06	3.17144
5.72137e+06	3.17144
5.7544e+06	3.17144
5.78762e+06	3.17144
5.82103e+06	3.17144
5.85464e+06	3.17144
5.88844e+06	3.17144
5.92243e+06	3.17144
5.95662e+06	3.17144
5.99101e+06	3.17144
6.0256e+06	3.17144
6.06038e+06	3.17144
6.09537e+06	3.17144
6.13056e+06	3.17143
6.16595e+06	3.17143
6.20155e+06	3.17143
6.23735e+06	3.17143
6.27336e+06	3.17143
6.30957e+06	3.17143
6.346e+06	3.17143
6.38263e+06	3.17143
6.41948e+06	3.17143
6.45654e+06	3.17143
6.49382e+06	3.17143
6.53131e+06	3.17143
6.56901e+06	3.17143
6.60693e+06	3.17143
6.64508e+06	3.17143
6.68344e+06	3.17143
6.72202e+06	3.17143
6.76083e+06	3.17143
6.79986e+06	3.17143
6.83912e+06	3.17143
6.8786e+06	3.17143
6.91831e+06	3.17143
6.95825e+06	3.17143
6.99842e+06	3.17143
7.03882e+06	3.17143
7.07946e+06	3.17143
7.12033e+06	3.17143
7.16143e+06	3.17143
7.20278e+06	3.17143
7.24436e+06	3.17143
7.28618e+06	3.17143
7.32825e+06	3.17143
7.37055e+06	3.17143
7.4131e+06	3.17143
7.4559e+06	3.17143
7.49894e+06	3.17143
7.54223e+06	3.17143
7.58578e+06	3.17143
7.62957e+06	3.17143
7.67361e+06	3.17143
7.71792e+06	3.17142
7.76247e+06	3.17142
7.80728e+06	3.17142
7.85236e+06	3.17142
7.89769e+06	3.17142
7.94328e+06	3.17142
7.98914e+06	3.17142
8.03526e+06	3.17142
8.08165e+06	3.17142
8.12831e+06	3.17142
8.17523e+06	3.17142
8.22243e+06	3.17142
8.2699e+06	3.17142
8.31764e+06	3.17142
8.36566e+06	3.17142
8.41395e+06	3.17142
8.46253e+06	3.17142
8.51138e+06	3.17142
8.56052e+06	3.17142
8.60994e+06	3.17142
8.65964e+06	3.17142
8.70964e+06	3.17142
8.75992e+06	3.17142
8.81049e+06	3.17142
8.86135e+06	3.17142
8.91251e+06	3.17142
8.96396e+06	3.17142
9.01571e+06	3.17142
9.06776e+06	3.17142
9.12011e+06	3.17142
9.17276e+06	3.17142
9.22571e+06	3.17142
9.27897e+06	3.17142
9.33254e+06	3.17142
9.38642e+06	3.17142
9.44061e+06	3.17142
9.49511e+06	3.17142
9.54993e+06	3.17142
9.60506e+06	3.17142
9.66051e+06	3.17142
9.71628e+06	3.17142
9.77237e+06	3.17142
9.82879e+06	3.17142
9.88553e+06	3.17142
9.9426e+06	3.17142
1e+07	3.17142
