Stopping power dEdx from Ionisation for Li7[0.0] Z = 3 in Water, process name: ionIoni
E [MeV]	dEdx [MeV/mm]
0.001	20.0148
0.00100577	20.0728
0.00101158	20.1309
0.00101742	20.1892
0.00102329	20.2477
0.0010292	20.3064
0.00103514	20.3652
0.00104112	20.4242
0.00104713	20.4834
0.00105317	20.5427
0.00105925	20.6022
0.00106537	20.6619
0.00107152	20.7217
0.00107771	20.7817
0.00108393	20.8419
0.00109018	20.9023
0.00109648	20.9628
0.00110281	21.0235
0.00110917	21.0844
0.00111558	21.1455
0.00112202	21.2067
0.0011285	21.2682
0.00113501	21.3298
0.00114156	21.3915
0.00114815	21.4535
0.00115478	21.5156
0.00116145	21.5779
0.00116815	21.6404
0.0011749	21.7031
0.00118168	21.7659
0.0011885	21.8289
0.00119536	21.8922
0.00120226	21.9555
0.00120921	22.0191
0.00121619	22.0829
0.00122321	22.1468
0.00123027	22.2109
0.00123737	22.2753
0.00124451	22.3398
0.0012517	22.4044
0.00125893	22.4693
0.00126619	22.5344
0.0012735	22.5996
0.00128086	22.665
0.00128825	22.7307
0.00129569	22.7965
0.00130317	22.8625
0.00131069	22.9287
0.00131826	22.995
0.00132587	23.0616
0.00133352	23.1284
0.00134122	23.1953
0.00134896	23.2625
0.00135675	23.3298
0.00136458	23.3974
0.00137246	23.4651
0.00138038	23.533
0.00138835	23.6011
0.00139637	23.6695
0.00140443	23.738
0.00141254	23.8067
0.00142069	23.8756
0.00142889	23.9447
0.00143714	24.014
0.00144544	24.0835
0.00145378	24.1532
0.00146218	24.2232
0.00147062	24.2933
0.00147911	24.3636
0.00148765	24.4341
0.00149624	24.5048
0.00150487	24.5757
0.00151356	24.6469
0.0015223	24.7182
0.00153109	24.7897
0.00153993	24.8615
0.00154882	24.9334
0.00155776	25.0056
0.00156675	25.078
0.0015758	25.1505
0.00158489	25.2233
0.00159404	25.2963
0.00160325	25.3695
0.0016125	25.4429
0.00162181	25.5166
0.00163117	25.5904
0.00164059	25.6645
0.00165006	25.7387
0.00165959	25.8132
0.00166917	25.8879
0.0016788	25.9628
0.0016885	26.0379
0.00169824	26.1133
0.00170805	26.1888
0.00171791	26.2646
0.00172783	26.3406
0.0017378	26.4168
0.00174783	26.4933
0.00175792	26.5699
0.00176807	26.6468
0.00177828	26.7239
0.00178855	26.8012
0.00179887	26.8788
0.00180926	26.9565
0.0018197	27.0345
0.00183021	27.1127
0.00184077	27.1912
0.0018514	27.2698
0.00186209	27.3487
0.00187284	27.4279
0.00188365	27.5072
0.00189452	27.5868
0.00190546	27.6666
0.00191646	27.7466
0.00192752	27.8269
0.00193865	27.9074
0.00194984	27.9881
0.0019611	28.0691
0.00197242	28.1503
0.00198381	28.2317
0.00199526	28.3134
0.00200678	28.3953
0.00201837	28.4774
0.00203002	28.5598
0.00204174	28.6424
0.00205353	28.7253
0.00206538	28.8083
0.0020773	28.8917
0.0020893	28.9752
0.00210136	29.059
0.00211349	29.1431
0.00212569	29.2274
0.00213796	29.3119
0.0021503	29.3967
0.00216272	29.4817
0.0021752	29.567
0.00218776	29.6525
0.00220039	29.7383
0.00221309	29.8243
0.00222587	29.9105
0.00223872	29.997
0.00225165	30.0838
0.00226464	30.1708
0.00227772	30.2581
0.00229087	30.3456
0.00230409	30.4333
0.00231739	30.5213
0.00233077	30.6096
0.00234423	30.6981
0.00235776	30.7869
0.00237137	30.8759
0.00238506	30.9652
0.00239883	31.0548
0.00241268	31.1446
0.00242661	31.2346
0.00244062	31.325
0.00245471	31.4155
0.00246888	31.5064
0.00248313	31.5975
0.00249747	31.6888
0.00251189	31.7805
0.00252639	31.8724
0.00254097	31.9645
0.00255564	32.057
0.0025704	32.1497
0.00258523	32.2426
0.00260016	32.3358
0.00261517	32.4293
0.00263027	32.5231
0.00264545	32.6171
0.00266073	32.7114
0.00267609	32.806
0.00269153	32.9009
0.00270707	32.996
0.0027227	33.0914
0.00273842	33.1871
0.00275423	33.283
0.00277013	33.3792
0.00278612	33.4757
0.00280221	33.5725
0.00281838	33.6696
0.00283465	33.7669
0.00285102	33.8645
0.00286748	33.9624
0.00288403	34.0606
0.00290068	34.1591
0.00291743	34.2578
0.00293427	34.3569
0.00295121	34.4562
0.00296825	34.5558
0.00298538	34.6557
0.00300262	34.7559
0.00301995	34.8564
0.00303739	34.9571
0.00305492	35.0582
0.00307256	35.1595
0.0030903	35.2612
0.00310814	35.3631
0.00312608	35.4653
0.00314413	35.5678
0.00316228	35.6706
0.00318053	35.7737
0.0031989	35.8771
0.00321736	35.9808
0.00323594	36.0848
0.00325462	36.1891
0.00327341	36.2937
0.0032923	36.3987
0.00331131	36.5039
0.00333043	36.6094
0.00334965	36.7152
0.00336899	36.8213
0.00338844	36.9277
0.003408	37.0345
0.00342768	37.1415
0.00344747	37.2488
0.00346737	37.3565
0.00348739	37.4645
0.00350752	37.5727
0.00352777	37.6813
0.00354813	37.7902
0.00356862	37.8995
0.00358922	38.009
0.00360994	38.1188
0.00363078	38.229
0.00365174	38.3395
0.00367282	38.4503
0.00369403	38.5614
0.00371535	38.6728
0.0037368	38.7846
0.00375837	38.8967
0.00378007	39.0091
0.00380189	39.1218
0.00382384	39.2349
0.00384592	39.3483
0.00386812	39.462
0.00389045	39.576
0.00391291	39.6904
0.0039355	39.8051
0.00395822	39.9201
0.00398107	40.0354
0.00400405	40.1511
0.00402717	40.2672
0.00405042	40.4847
0.0040738	40.6014
0.00409732	40.7184
0.00412098	40.8358
0.00414477	40.9535
0.00416869	41.0715
0.00419276	41.1899
0.00421697	41.3086
0.00424131	41.4277
0.0042658	41.5471
0.00429042	41.6669
0.00431519	41.787
0.0043401	41.9074
0.00436516	42.0282
0.00439036	42.1493
0.0044157	42.2708
0.0044412	42.3927
0.00446684	42.5149
0.00449262	42.6374
0.00451856	42.7603
0.00454465	42.8835
0.00457088	43.0072
0.00459727	43.1311
0.00462381	43.2554
0.0046505	43.3801
0.00467735	43.5052
0.00470435	43.6305
0.00473151	43.7563
0.00475883	43.8824
0.0047863	44.0089
0.00481393	44.1358
0.00484172	44.263
0.00486968	44.3906
0.00489779	44.5185
0.00492606	44.6468
0.0049545	44.7755
0.0049831	44.9046
0.00501187	45.034
0.00504081	45.1638
0.00506991	45.294
0.00509918	45.4246
0.00512861	45.5555
0.00515822	45.6868
0.005188	45.8185
0.00521795	45.9505
0.00524807	46.083
0.00527837	46.2158
0.00530884	46.349
0.00533949	46.4826
0.00537032	46.6166
0.00540132	46.751
0.0054325	46.8857
0.00546387	47.0209
0.00549541	47.1564
0.00552713	47.2923
0.00555904	47.4286
0.00559114	47.5653
0.00562341	47.7024
0.00565588	47.8399
0.00568853	47.9778
0.00572137	48.1161
0.0057544	48.2548
0.00578762	48.3939
0.00582103	48.5334
0.00585464	48.6733
0.00588844	48.8136
0.00592243	48.9543
0.00595662	49.0954
0.00599101	49.2369
0.0060256	49.3788
0.00606038	49.5211
0.00609537	49.6639
0.00613056	49.807
0.00616595	49.9506
0.00620155	50.0946
0.00623735	50.239
0.00627336	50.3838
0.00630957	50.529
0.006346	50.6746
0.00638263	50.8207
0.00641948	50.9672
0.00645654	51.1141
0.00649382	51.2614
0.00653131	51.4092
0.00656901	51.5574
0.00660693	51.706
0.00664508	51.855
0.00668344	52.0045
0.00672202	52.1544
0.00676083	52.3047
0.00679986	52.4555
0.00683912	52.6067
0.0068786	52.7583
0.00691831	52.9104
0.00695825	53.0629
0.00699842	53.2158
0.00703882	53.3692
0.00707946	53.523
0.00712033	53.6773
0.00716143	53.832
0.00720278	53.9872
0.00724436	54.1428
0.00728618	54.2989
0.00732825	54.4554
0.00737055	54.6123
0.0074131	54.7697
0.0074559	54.9276
0.00749894	55.0859
0.00754223	55.2447
0.00758578	55.4039
0.00762957	55.5636
0.00767361	55.7238
0.00771792	55.8844
0.00776247	56.0455
0.00780728	56.207
0.00785236	56.369
0.00789769	56.5315
0.00794328	56.6945
0.00798914	56.8579
0.00803526	57.0218
0.00808165	57.1861
0.00812831	57.351
0.00817523	57.5163
0.00822243	57.682
0.0082699	57.8483
0.00831764	58.0151
0.00836566	58.1823
0.00841395	58.35
0.00846253	58.5182
0.00851138	58.6868
0.00856052	58.856
0.00860994	59.0256
0.00865964	59.1958
0.00870964	59.3664
0.00875992	59.5375
0.00881049	59.7091
0.00886135	59.8812
0.00891251	60.0538
0.00896396	60.2269
0.00901571	60.4005
0.00906776	60.5746
0.00912011	60.7492
0.00917276	60.9243
0.00922571	61.0999
0.00927897	61.276
0.00933254	61.4527
0.00938642	61.6298
0.00944061	61.8074
0.00949511	61.9856
0.00954993	62.1642
0.00960506	62.3434
0.00966051	62.5231
0.00971628	62.7033
0.00977237	62.8841
0.00982879	63.0653
0.00988553	63.2471
0.0099426	63.4294
0.01	63.6122
0.0100577	63.7956
0.0101158	63.9795
0.0101742	64.1639
0.0102329	64.3488
0.010292	64.5343
0.0103514	64.7203
0.0104112	64.9069
0.0104713	65.094
0.0105317	65.2816
0.0105925	65.4697
0.0106537	65.6585
0.0107152	65.8477
0.0107771	66.0375
0.0108393	66.2279
0.0109018	66.4187
0.0109648	66.6102
0.0110281	66.8022
0.0110917	66.9947
0.0111558	67.1878
0.0112202	67.3815
0.011285	67.5757
0.0113501	67.7705
0.0114156	67.9658
0.0114815	68.1617
0.0115478	68.3582
0.0116145	68.5552
0.0116815	68.7528
0.011749	68.951
0.0118168	69.1498
0.011885	69.3491
0.0119536	69.549
0.0120226	69.7494
0.0120921	69.9505
0.0121619	70.1521
0.0122321	70.3543
0.0123027	70.5571
0.0123737	70.7605
0.0124451	70.9644
0.012517	71.169
0.0125893	71.3741
0.0126619	71.5798
0.012735	71.7862
0.0128086	71.9931
0.0128825	72.2006
0.0129569	72.4087
0.0130317	72.6174
0.0131069	72.8267
0.0131826	73.0366
0.0132587	73.2471
0.0133352	73.4583
0.0134122	73.67
0.0134896	73.8823
0.0135675	74.0953
0.0136458	74.3089
0.0137246	74.5231
0.0138038	74.7379
0.0138835	74.9533
0.0139637	75.1693
0.0140443	75.386
0.0141254	75.6033
0.0142069	75.8212
0.0142889	76.0397
0.0143714	76.2589
0.0144544	76.4787
0.0145378	76.6992
0.0146218	76.9202
0.0147062	77.142
0.0147911	77.3643
0.0148765	77.5873
0.0149624	77.8109
0.0150487	78.0352
0.0151356	78.2601
0.015223	78.4857
0.0153109	78.712
0.0153993	78.9388
0.0154882	79.1664
0.0155776	79.3945
0.0156675	79.6234
0.015758	79.8529
0.0158489	80.0831
0.0159404	80.3139
0.0160325	80.5454
0.016125	80.7775
0.0162181	81.0104
0.0163117	81.2439
0.0164059	81.4781
0.0165006	81.7129
0.0165959	81.9484
0.0166917	82.1846
0.016788	82.4215
0.016885	82.6591
0.0169824	82.8974
0.0170805	83.1363
0.0171791	83.3759
0.0172783	83.6162
0.017378	83.8573
0.0174783	84.099
0.0175792	84.3414
0.0176807	84.5845
0.0177828	84.8283
0.0178855	85.0728
0.0179887	85.318
0.0180926	85.5639
0.018197	85.8105
0.0183021	86.0579
0.0184077	86.3059
0.018514	86.5547
0.0186209	86.8042
0.0187284	87.0544
0.0188365	87.3053
0.0189452	87.557
0.0190546	87.8093
0.0191646	88.0624
0.0192752	88.3163
0.0193865	88.5708
0.0194984	88.8261
0.019611	89.0821
0.0197242	89.3389
0.0198381	89.5964
0.0199526	89.8547
0.0200678	90.1137
0.0201837	90.3734
0.0203002	90.6339
0.0204174	90.8951
0.0205353	91.1571
0.0206538	91.4199
0.020773	91.6834
0.020893	91.9477
0.0210136	92.2127
0.0211349	92.4785
0.0212569	92.745
0.0213796	93.0124
0.021503	93.2805
0.0216272	93.5493
0.021752	93.819
0.0218776	94.0894
0.0220039	94.3606
0.0221309	94.6326
0.0222587	94.9053
0.0223872	95.1789
0.0225165	95.4532
0.0226464	95.7284
0.0227772	96.0043
0.0229087	96.281
0.0230409	96.5585
0.0231739	96.8369
0.0233077	97.116
0.0234423	97.3959
0.0235776	97.6766
0.0237137	97.9582
0.0238506	98.2405
0.0239883	98.5237
0.0241268	98.8077
0.0242661	99.0925
0.0244062	99.3781
0.0245471	99.6645
0.0246888	99.9518
0.0248313	100.24
0.0249747	100.529
0.0251189	100.819
0.0252639	101.109
0.0254097	101.401
0.0255564	101.693
0.025704	101.986
0.0258523	102.28
0.0260016	102.575
0.0261517	102.87
0.0263027	103.167
0.0264545	103.464
0.0266073	103.763
0.0267609	104.062
0.0269153	104.362
0.0270707	104.662
0.027227	104.964
0.0273842	105.267
0.0275423	105.57
0.0277013	105.874
0.0278612	106.179
0.0280221	106.486
0.0281838	106.792
0.0283465	107.1
0.0285102	107.409
0.0286748	107.719
0.0288403	108.029
0.0290068	108.34
0.0291743	108.653
0.0293427	108.966
0.0295121	109.28
0.0296825	109.595
0.0298538	109.911
0.0300262	110.228
0.0301995	110.545
0.0303739	110.864
0.0305492	111.184
0.0307256	111.504
0.030903	111.825
0.0310814	112.148
0.0312608	112.471
0.0314413	112.795
0.0316228	113.12
0.0318053	113.446
0.031989	113.773
0.0321736	114.101
0.0323594	114.43
0.0325462	114.76
0.0327341	115.091
0.032923	115.423
0.0331131	115.755
0.0333043	116.089
0.0334965	116.424
0.0336899	116.759
0.0338844	117.096
0.03408	117.433
0.0342768	117.772
0.0344747	118.111
0.0346737	118.452
0.0348739	118.793
0.0350752	119.135
0.0352777	119.479
0.0354813	119.823
0.0356862	120.169
0.0358922	120.515
0.0360994	120.862
0.0363078	121.211
0.0365174	121.56
0.0367282	121.91
0.0369403	122.262
0.0371535	122.614
0.037368	122.968
0.0375837	123.322
0.0378007	123.677
0.0380189	124.034
0.0382384	124.391
0.0384592	124.75
0.0386812	125.11
0.0389045	125.47
0.0391291	125.832
0.039355	126.195
0.0395822	126.558
0.0398107	126.923
0.0400405	127.289
0.0402717	127.656
0.0405042	128.024
0.040738	128.393
0.0409732	128.763
0.0412098	129.134
0.0414477	129.506
0.0416869	129.88
0.0419276	130.254
0.0421697	130.629
0.0424131	131.006
0.042658	131.383
0.0429042	131.762
0.0431519	132.142
0.043401	132.523
0.0436516	132.905
0.0439036	133.288
0.044157	133.672
0.044412	134.057
0.0446684	134.444
0.0449262	134.831
0.0451856	135.22
0.0454465	135.61
0.0457088	136.001
0.0459727	136.393
0.0462381	136.786
0.046505	137.18
0.0467735	137.575
0.0470435	137.972
0.0473151	138.37
0.0475883	138.768
0.047863	139.168
0.0481393	139.57
0.0484172	139.972
0.0486968	140.375
0.0489779	140.78
0.0492606	141.186
0.049545	141.593
0.049831	142.001
0.0501187	142.41
0.0504081	142.821
0.0506991	143.232
0.0509918	143.645
0.0512861	144.059
0.0515822	144.474
0.05188	144.891
0.0521795	145.308
0.0524807	145.727
0.0527837	146.147
0.0530884	146.569
0.0533949	146.991
0.0537032	147.415
0.0540132	147.84
0.054325	148.266
0.0546387	148.693
0.0549541	149.122
0.0552713	149.551
0.0555904	149.983
0.0559114	150.415
0.0562341	150.848
0.0565588	151.283
0.0568853	151.719
0.0572137	152.157
0.057544	152.595
0.0578762	153.035
0.0582103	153.476
0.0585464	153.918
0.0588844	154.362
0.0592243	154.807
0.0595662	155.253
0.0599101	155.701
0.060256	156.15
0.0606038	156.6
0.0609537	157.051
0.0613056	157.504
0.0616595	157.958
0.0620155	158.413
0.0623735	158.87
0.0627336	159.327
0.0630957	159.787
0.06346	160.247
0.0638263	160.709
0.0641948	161.172
0.0645654	161.637
0.0649382	162.103
0.0653131	162.57
0.0656901	163.039
0.0660693	163.509
0.0664508	163.98
0.0668344	164.453
0.0672202	164.927
0.0676083	165.402
0.0679986	165.879
0.0683912	166.357
0.068786	166.836
0.0691831	167.317
0.0695825	167.8
0.0699842	168.283
0.0703882	168.768
0.0707946	169.255
0.0712033	169.743
0.0716143	170.232
0.0720278	170.722
0.0724436	171.215
0.0728618	171.708
0.0732825	172.203
0.0737055	172.699
0.074131	173.197
0.074559	173.696
0.0749894	174.197
0.0754223	174.699
0.0758578	175.203
0.0762957	175.708
0.0767361	176.214
0.0771792	176.722
0.0776247	177.231
0.0780728	177.742
0.0785236	178.255
0.0789769	178.768
0.0794328	179.284
0.0798914	179.8
0.0803526	180.319
0.0808165	180.838
0.0812831	181.36
0.0817523	181.882
0.0822243	182.407
0.082699	182.932
0.0831764	183.46
0.0836566	183.988
0.0841395	184.519
0.0846253	185.051
0.0851138	185.584
0.0856052	186.119
0.0860994	186.655
0.0865964	187.193
0.0870964	187.733
0.0875992	188.274
0.0881049	188.817
0.0886135	189.361
0.0891251	189.907
0.0896396	190.454
0.0901571	191.003
0.0906776	191.554
0.0912011	192.106
0.0917276	192.66
0.0922571	193.215
0.0927897	193.772
0.0933254	194.33
0.0938642	194.891
0.0944061	195.452
0.0949511	196.016
0.0954993	196.581
0.0960506	197.147
0.0966051	197.715
0.0971628	198.285
0.0977237	198.857
0.0982879	199.43
0.0988553	200.005
0.099426	200.581
0.1	201.16
0.100577	201.739
0.101158	202.321
0.101742	202.904
0.102329	203.489
0.10292	204.075
0.103514	204.664
0.104112	205.254
0.104713	205.845
0.105317	206.438
0.105925	207.034
0.106537	207.63
0.107152	208.229
0.107771	208.829
0.108393	209.431
0.109018	210.035
0.109648	210.64
0.110281	211.247
0.110917	211.856
0.111558	212.467
0.112202	213.079
0.11285	213.693
0.113501	214.309
0.114156	214.927
0.114815	215.546
0.115478	216.168
0.116145	216.791
0.116815	217.416
0.11749	218.042
0.118168	218.671
0.11885	219.301
0.119536	219.933
0.120226	220.567
0.120921	221.203
0.121619	221.84
0.122321	222.48
0.123027	223.121
0.123737	223.764
0.124451	224.409
0.12517	225.056
0.125893	225.705
0.126619	226.355
0.12735	227.008
0.128086	227.662
0.128825	228.318
0.129569	228.976
0.130317	229.636
0.131069	230.298
0.131826	230.962
0.132587	231.628
0.133352	232.295
0.134122	232.965
0.134896	233.636
0.135675	234.31
0.136458	234.985
0.137246	235.663
0.138038	236.342
0.138835	237.023
0.139637	237.706
0.140443	238.391
0.141254	239.079
0.142069	239.768
0.142889	240.459
0.143714	241.152
0.144544	241.847
0.145378	242.544
0.146218	243.243
0.147062	243.944
0.147911	244.647
0.148765	245.353
0.149624	246.06
0.150487	246.769
0.151356	247.48
0.15223	248.194
0.153109	248.909
0.153993	249.626
0.154882	250.346
0.155776	251.068
0.156675	251.791
0.15758	252.517
0.158489	253.245
0.159404	253.975
0.160325	254.707
0.16125	255.441
0.162181	256.177
0.163117	256.916
0.164059	257.656
0.165006	258.399
0.165959	259.144
0.166917	259.891
0.16788	260.64
0.16885	261.391
0.169824	262.144
0.170805	262.9
0.171791	263.658
0.172783	264.418
0.17378	265.18
0.174783	265.944
0.175792	266.601
0.176807	267.23
0.177828	267.862
0.178855	268.497
0.179887	269.135
0.180926	269.776
0.18197	270.42
0.183021	271.067
0.184077	271.717
0.18514	272.369
0.186209	273.025
0.187284	273.684
0.188365	274.345
0.189452	275.01
0.190546	275.677
0.191646	276.347
0.192752	277.02
0.193865	277.696
0.194984	278.375
0.19611	279.057
0.197242	279.741
0.198381	280.429
0.199526	281.119
0.200678	281.812
0.201837	282.507
0.203002	283.206
0.204174	283.907
0.205353	284.611
0.206538	285.318
0.20773	286.027
0.20893	286.74
0.210136	287.446
0.211349	288.091
0.212569	288.739
0.213796	289.388
0.21503	290.04
0.216272	290.694
0.21752	291.35
0.218776	292.008
0.220039	292.668
0.221309	293.33
0.222587	293.994
0.223872	294.66
0.225165	295.327
0.226464	295.997
0.227772	296.669
0.229087	297.342
0.230409	298.017
0.231739	298.694
0.233077	299.373
0.234423	300.053
0.235776	300.735
0.237137	301.418
0.238506	302.103
0.239883	302.79
0.241268	303.477
0.242661	304.166
0.244062	304.857
0.245471	305.549
0.246888	306.241
0.248313	306.936
0.249747	307.631
0.251189	308.327
0.252639	309.024
0.254097	309.722
0.255564	310.421
0.25704	311.12
0.258523	311.821
0.260016	312.522
0.261517	313.223
0.263027	313.925
0.264545	314.628
0.266073	315.33
0.267609	316.033
0.269153	316.736
0.270707	317.44
0.27227	318.143
0.273842	318.846
0.275423	319.549
0.277013	320.252
0.278612	320.954
0.280221	321.653
0.281838	322.335
0.283465	323.016
0.285102	323.696
0.286748	324.376
0.288403	325.055
0.290068	325.733
0.291743	326.41
0.293427	327.086
0.295121	327.762
0.296825	328.436
0.298538	329.11
0.300262	329.782
0.301995	330.454
0.303739	331.124
0.305492	331.793
0.307256	332.461
0.30903	333.128
0.310814	333.794
0.312608	334.459
0.314413	335.122
0.316228	335.784
0.318053	336.445
0.31989	337.105
0.321736	337.763
0.323594	338.42
0.325462	339.075
0.327341	339.729
0.32923	340.382
0.331131	341.033
0.333043	341.682
0.334965	342.33
0.336899	342.977
0.338844	343.622
0.3408	344.265
0.342768	344.907
0.344747	345.547
0.346737	346.185
0.348739	346.822
0.350752	347.457
0.352777	348.089
0.354813	348.72
0.356862	349.349
0.358922	349.976
0.360994	350.601
0.363078	351.225
0.365174	351.846
0.367282	352.466
0.369403	353.083
0.371535	353.698
0.37368	354.312
0.375837	354.923
0.378007	355.532
0.380189	356.139
0.382384	356.744
0.384592	357.346
0.386812	357.946
0.389045	358.544
0.391291	359.139
0.39355	359.733
0.395822	360.323
0.398107	360.912
0.400405	361.497
0.402717	362.081
0.405042	362.662
0.40738	363.24
0.409732	363.816
0.412098	364.389
0.414477	364.959
0.416869	365.527
0.419276	366.093
0.421697	366.655
0.424131	367.215
0.42658	367.772
0.429042	368.326
0.431519	368.877
0.43401	369.425
0.436516	369.971
0.439036	370.513
0.44157	371.052
0.44412	371.588
0.446684	372.12
0.449262	372.65
0.451856	373.176
0.454465	373.698
0.457088	374.217
0.459727	374.733
0.462381	375.245
0.46505	375.753
0.467735	376.258
0.470435	376.758
0.473151	377.255
0.475883	377.748
0.47863	378.238
0.481393	378.723
0.484172	379.204
0.486968	379.681
0.489779	380.154
0.492606	380.622
0.49545	381.087
0.49831	381.547
0.501187	382.003
0.504081	382.454
0.506991	382.901
0.509918	383.345
0.512861	383.784
0.515822	384.218
0.5188	384.649
0.521795	385.075
0.524807	385.498
0.527837	385.916
0.530884	386.33
0.533949	386.74
0.537032	387.146
0.540132	387.548
0.54325	387.946
0.546387	388.34
0.549541	388.731
0.552713	389.117
0.555904	389.5
0.559114	389.879
0.562341	390.254
0.565588	390.626
0.568853	390.994
0.572137	391.358
0.57544	391.718
0.578762	392.074
0.582103	392.426
0.585464	392.773
0.588844	393.116
0.592243	393.455
0.595662	393.789
0.599101	394.118
0.60256	394.442
0.606038	394.761
0.609537	395.075
0.613056	395.384
0.616595	395.687
0.620155	395.985
0.623735	396.277
0.627336	396.564
0.630957	396.844
0.6346	397.119
0.638263	397.387
0.641948	397.65
0.645654	397.906
0.649382	398.157
0.653131	398.403
0.656901	398.642
0.660693	398.876
0.664508	399.105
0.668344	399.328
0.672202	399.546
0.676083	399.759
0.679986	399.966
0.683912	400.169
0.68786	400.366
0.691831	400.559
0.695825	400.747
0.699842	400.931
0.703882	401.112
0.707946	401.288
0.712033	401.46
0.716143	401.628
0.720278	401.791
0.724436	401.949
0.728618	402.103
0.732825	402.252
0.737055	402.397
0.74131	402.537
0.74559	402.672
0.749894	402.803
0.754223	402.928
0.758578	403.049
0.762957	403.165
0.767361	403.277
0.771792	403.383
0.776247	403.484
0.780728	403.581
0.785236	403.672
0.789769	403.759
0.794328	403.84
0.798914	403.917
0.803526	403.988
0.808165	404.055
0.812831	404.116
0.817523	404.172
0.822243	404.223
0.82699	404.269
0.831764	404.31
0.836566	404.346
0.841395	404.376
0.846253	404.402
0.851138	404.422
0.856052	404.437
0.860994	404.447
0.865964	404.451
0.870964	404.451
0.875992	404.445
0.881049	404.434
0.886135	404.418
0.891251	404.397
0.896396	404.371
0.901571	404.339
0.906776	404.303
0.912011	404.261
0.917276	404.214
0.922571	404.163
0.927897	404.106
0.933254	404.044
0.938642	403.977
0.944061	403.906
0.949511	403.83
0.954993	403.748
0.960506	403.662
0.966051	403.572
0.971628	403.476
0.977237	403.376
0.982879	403.271
0.988553	403.162
0.99426	403.049
1	402.931
1.00577	402.809
1.01158	402.682
1.01742	402.552
1.02329	402.417
1.0292	402.279
1.03514	402.136
1.04112	401.99
1.04713	401.841
1.05317	401.681
1.05925	401.512
1.06537	401.34
1.07152	401.164
1.07771	400.984
1.08393	400.801
1.09018	400.614
1.09648	400.423
1.10281	400.229
1.10917	400.031
1.11558	399.829
1.12202	399.624
1.1285	399.414
1.13501	399.202
1.14156	398.985
1.14815	398.765
1.15478	398.541
1.16145	398.313
1.16815	398.081
1.1749	397.846
1.18168	397.606
1.1885	397.363
1.19536	397.117
1.20226	396.866
1.20921	396.612
1.21619	396.353
1.22321	396.091
1.23027	395.825
1.23737	395.556
1.24451	395.282
1.2517	395.005
1.25893	394.724
1.26619	394.44
1.2735	394.151
1.28086	393.859
1.28825	393.563
1.29569	393.263
1.30317	392.96
1.31069	392.653
1.31826	392.342
1.32587	392.028
1.33352	391.709
1.34122	391.388
1.34896	391.063
1.35675	390.734
1.36458	390.402
1.37246	390.066
1.38038	389.726
1.38835	389.384
1.39637	389.038
1.40443	388.689
1.41254	388.338
1.42069	387.983
1.42889	387.625
1.43714	387.264
1.44544	386.899
1.45378	386.531
1.46218	386.16
1.47062	385.786
1.47911	385.408
1.48765	385.026
1.49624	384.642
1.50487	384.254
1.51356	383.863
1.5223	383.469
1.53109	383.071
1.53993	382.67
1.54882	382.266
1.55776	381.858
1.56675	381.448
1.5758	381.034
1.58489	380.617
1.59404	380.196
1.60325	379.773
1.6125	379.346
1.62181	378.917
1.63117	378.484
1.64059	378.048
1.65006	377.609
1.65959	377.167
1.66917	376.722
1.6788	376.275
1.6885	375.824
1.69824	375.37
1.70805	374.913
1.71791	374.454
1.72783	373.992
1.7378	373.527
1.74783	373.059
1.75792	372.589
1.76807	372.116
1.77828	371.641
1.78855	371.163
1.79887	370.682
1.80926	370.199
1.8197	369.713
1.83021	369.224
1.84077	368.733
1.8514	368.24
1.86209	367.743
1.87284	367.245
1.88365	366.743
1.89452	366.24
1.90546	365.733
1.91646	365.225
1.92752	364.714
1.93865	364.2
1.94984	363.684
1.9611	363.166
1.97242	362.645
1.98381	362.122
1.99526	361.597
2.00678	361.069
2.01837	360.539
2.03002	360.007
2.04174	359.473
2.05353	358.936
2.06538	358.397
2.0773	357.857
2.0893	357.314
2.10136	356.769
2.11349	356.222
2.12569	355.673
2.13796	355.122
2.1503	354.569
2.16272	354.014
2.1752	353.458
2.18776	352.899
2.20039	352.338
2.21309	351.775
2.22587	351.21
2.23872	350.644
2.25165	350.075
2.26464	349.504
2.27772	348.932
2.29087	348.358
2.30409	347.781
2.31739	347.203
2.33077	346.623
2.34423	346.041
2.35776	345.457
2.37137	344.871
2.38506	344.283
2.39883	343.693
2.41268	343.102
2.42661	342.509
2.44062	341.914
2.45471	341.317
2.46888	340.718
2.48313	340.118
2.49747	339.515
2.51189	338.911
2.52639	338.305
2.54097	337.698
2.55564	337.088
2.5704	336.477
2.58523	335.865
2.60016	335.25
2.61517	334.634
2.63027	334.017
2.64545	333.397
2.66073	332.776
2.67609	332.154
2.69153	331.529
2.70707	330.904
2.7227	330.276
2.73842	329.648
2.75423	329.017
2.77013	328.385
2.78612	327.752
2.80221	327.117
2.81838	326.482
2.83465	325.846
2.85102	325.208
2.86748	324.568
2.88403	323.927
2.90068	323.285
2.91743	322.642
2.93427	321.997
2.95121	321.351
2.96825	320.703
2.98538	320.054
3.00262	319.404
3.01995	318.753
3.03739	318.1
3.05492	317.447
3.07256	316.792
3.0903	316.135
3.10814	315.478
3.12608	314.819
3.14413	314.159
3.16228	313.498
3.18053	312.836
3.1989	312.173
3.21736	311.509
3.23594	310.843
3.25462	310.177
3.27341	309.509
3.2923	308.841
3.31131	308.171
3.33043	307.501
3.34965	306.829
3.36899	306.157
3.38844	305.483
3.408	304.809
3.42768	304.133
3.44747	303.457
3.46737	302.78
3.48739	302.102
3.50752	301.423
3.52777	300.743
3.54813	300.062
3.56862	299.38
3.58922	298.698
3.60994	298.014
3.63078	297.33
3.65174	296.646
3.67282	295.96
3.69403	295.274
3.71535	294.587
3.7368	293.899
3.75837	293.211
3.78007	292.522
3.80189	291.833
3.82384	291.142
3.84592	290.452
3.86812	289.76
3.89045	289.068
3.91291	288.376
3.9355	287.682
3.95822	286.989
3.98107	286.294
4.00405	285.599
4.02717	284.904
4.05042	284.208
4.0738	283.512
4.09732	282.815
4.12098	282.118
4.14477	281.42
4.16869	280.722
4.19276	280.023
4.21697	279.324
4.24131	278.624
4.2658	277.924
4.29042	277.224
4.31519	276.523
4.3401	275.822
4.36516	275.12
4.39036	274.419
4.4157	273.717
4.4412	273.014
4.46684	272.311
4.49262	271.608
4.51856	270.905
4.54465	270.201
4.57088	269.498
4.59727	268.793
4.62381	268.089
4.6505	267.385
4.67735	266.68
4.70435	265.975
4.73151	265.27
4.75883	264.565
4.7863	263.859
4.81393	263.154
4.84172	262.448
4.86968	261.742
4.89779	261.036
4.92606	260.33
4.9545	259.624
4.9831	258.917
5.01187	258.211
5.04081	257.504
5.06991	256.798
5.09918	256.091
5.12861	255.384
5.15822	254.678
5.188	253.971
5.21795	253.264
5.24807	252.558
5.27837	251.851
5.30884	251.144
5.33949	250.438
5.37032	249.731
5.40132	249.025
5.4325	248.319
5.46387	247.613
5.49541	246.907
5.52713	246.201
5.55904	245.495
5.59114	244.789
5.62341	244.083
5.65588	243.378
5.68853	242.672
5.72137	241.967
5.7544	241.262
5.78762	240.558
5.82103	239.853
5.85464	239.149
5.88844	238.445
5.92243	237.741
5.95662	237.038
5.99101	236.335
6.0256	235.633
6.06038	234.93
6.09537	234.228
6.13056	233.527
6.16595	232.826
6.20155	232.125
6.23735	231.425
6.27336	230.726
6.30957	230.026
6.346	229.328
6.38263	228.63
6.41948	227.932
6.45654	227.235
6.49382	226.538
6.53131	225.842
6.56901	225.147
6.60693	224.452
6.64508	223.757
6.68344	223.063
6.72202	222.37
6.76083	221.677
6.79986	220.985
6.83912	220.293
6.8786	219.601
6.91831	218.911
6.95825	218.22
6.99842	217.531
7.03882	216.84
7.07946	216.151
7.12033	215.462
7.16143	214.773
7.20278	214.085
7.24436	213.398
7.28618	212.711
7.32825	212.025
7.37055	211.339
7.4131	210.654
7.4559	209.97
7.49894	209.287
7.54223	208.604
7.58578	207.922
7.62957	207.241
7.67361	206.561
7.71792	205.882
7.76247	205.203
7.80728	204.526
7.85236	203.849
7.89769	203.173
7.94328	202.498
7.98914	201.824
8.03526	201.151
8.08165	200.479
8.12831	199.808
8.17523	199.139
8.22243	198.47
8.2699	197.802
8.31764	197.135
8.36566	196.469
8.41395	195.804
8.46253	195.141
8.51138	194.478
8.56052	193.817
8.60994	193.156
8.65964	192.497
8.70964	191.839
8.75992	191.182
8.81049	190.526
8.86135	189.872
8.91251	189.218
8.96396	188.566
9.01571	187.915
9.06776	187.265
9.12011	186.616
9.17276	185.968
9.22571	185.321
9.27897	184.676
9.33254	184.032
9.38642	183.388
9.44061	182.746
9.49511	182.105
9.54993	181.465
9.60506	180.826
9.66051	180.188
9.71628	179.551
9.77237	178.916
9.82879	178.281
9.88553	177.647
9.9426	177.014
10	176.382
10.0577	175.751
10.1158	175.12
10.1742	174.491
10.2329	173.862
10.292	173.234
10.3514	172.607
10.4112	171.98
10.4713	171.354
10.5317	170.734
10.5925	170.12
10.6537	169.506
10.7152	168.894
10.7771	168.281
10.8393	167.67
10.9018	167.059
10.9648	166.449
11.0281	165.84
11.0917	165.232
11.1558	164.624
11.2202	164.018
11.285	163.412
11.3501	162.807
11.4156	162.203
11.4815	161.6
11.5478	160.999
11.6145	160.398
11.6815	159.798
11.749	159.199
11.8168	158.601
11.885	158.005
11.9536	157.409
12.0226	156.815
12.0921	156.222
12.1619	155.63
12.2321	155.04
12.3027	154.45
12.3737	153.862
12.4451	153.276
12.517	152.69
12.5893	152.106
12.6619	151.523
12.735	150.942
12.8086	150.362
12.8825	149.783
12.9569	149.206
13.0317	148.63
13.1069	148.056
13.1826	147.483
13.2587	146.912
13.3352	146.342
13.4122	145.774
13.4896	145.207
13.5675	144.642
13.6458	144.078
13.7246	143.516
13.8038	142.956
13.8835	142.397
13.9637	141.84
14.0443	141.283
14.1254	140.726
14.2069	140.171
14.2889	139.618
14.3714	139.066
14.4544	138.516
14.5378	137.968
14.6218	137.421
14.7062	136.877
14.7911	136.333
14.8765	135.792
14.9624	135.252
15.0487	134.714
15.1356	134.177
15.223	133.642
15.3109	133.109
15.3993	132.578
15.4882	132.049
15.5776	131.521
15.6675	130.995
15.758	130.47
15.8489	129.947
15.9404	129.426
16.0325	128.907
16.125	128.389
16.2181	127.873
16.3117	127.359
16.4059	126.846
16.5006	126.335
16.5959	125.826
16.6917	125.318
16.788	124.812
16.885	124.307
16.9824	123.804
17.0805	123.302
17.1791	122.801
17.2783	122.302
17.378	121.805
17.4783	121.309
17.5792	120.814
17.6807	120.32
17.7828	119.828
17.8855	119.337
17.9887	118.847
18.0926	118.359
18.197	117.872
18.3021	117.386
18.4077	116.902
18.514	116.419
18.6209	115.938
18.7284	115.458
18.8365	114.98
18.9452	114.503
19.0546	114.027
19.1646	113.553
19.2752	113.081
19.3865	112.609
19.4984	112.14
19.611	111.672
19.7242	111.205
19.8381	110.74
19.9526	110.277
20.0678	109.814
20.1837	109.354
20.3002	108.895
20.4174	108.437
20.5353	107.981
20.6538	107.526
20.773	107.073
20.893	106.621
21.0136	106.171
21.1349	105.721
21.2569	105.273
21.3796	104.826
21.503	104.381
21.6272	103.937
21.752	103.495
21.8776	103.054
22.0039	102.615
22.1309	102.177
22.2587	101.741
22.3872	101.306
22.5165	100.873
22.6464	100.442
22.7772	100.012
22.9087	99.5839
23.0409	99.1573
23.1739	98.7323
23.3077	98.3089
23.4423	97.8872
23.5776	97.467
23.7137	97.0485
23.8506	96.6317
23.9883	96.2164
24.1268	95.8028
24.2661	95.3908
24.4062	94.9805
24.5471	94.5717
24.6888	94.1646
24.8313	93.759
24.9747	93.3551
25.1189	92.9528
25.2639	92.552
25.4097	92.1528
25.5564	91.7552
25.704	91.359
25.8523	90.9644
26.0016	90.5714
26.1517	90.1797
26.3027	89.7896
26.4545	89.4009
26.6073	89.0135
26.7609	88.6276
26.9153	88.243
27.0707	87.8597
27.227	87.4778
27.3842	87.097
27.5423	86.7175
27.7013	86.3392
27.8612	85.962
28.0221	85.5862
28.1838	85.214
28.3465	84.8428
28.5102	84.4727
28.6748	84.1037
28.8403	83.7358
29.0068	83.3691
29.1743	83.0036
29.3427	82.6392
29.5121	82.276
29.6825	81.914
29.8538	81.5532
30.0262	81.1937
30.1995	80.8354
30.3739	80.4783
30.5492	80.1225
30.7256	79.768
30.903	79.4148
31.0814	79.0628
31.2608	78.7122
31.4413	78.3629
31.6228	78.0149
31.8053	77.6682
31.989	77.3229
32.1736	76.9789
32.3594	76.6363
32.5462	76.295
32.7341	75.9551
32.923	75.6165
33.1131	75.2793
33.3043	74.9435
33.4965	74.6091
33.6899	74.276
33.8844	73.9444
34.08	73.614
34.2768	73.2851
34.4747	72.9575
34.6737	72.6313
34.8739	72.3065
35.0752	71.9827
35.2777	71.6599
35.4813	71.3384
35.6862	71.0182
35.8922	70.6995
36.0994	70.3821
36.3078	70.066
36.5174	69.7513
36.7282	69.438
36.9403	69.1261
37.1535	68.8156
37.368	68.5064
37.5837	68.1985
37.8007	67.8921
38.0189	67.587
38.2384	67.2832
38.4592	66.9808
38.6812	66.6798
38.9045	66.38
39.1291	66.0816
39.355	65.7845
39.5822	65.4887
39.8107	65.1942
40.0405	64.9009
40.2717	64.6089
40.5042	64.3182
40.738	64.0286
40.9732	63.7403
41.2098	63.4531
41.4477	63.1671
41.6869	62.8822
41.9276	62.5984
42.1697	62.3156
42.4131	62.0339
42.658	61.7533
42.9042	61.4738
43.1519	61.1954
43.401	60.918
43.6516	60.6418
43.9036	60.3666
44.157	60.0926
44.412	59.8197
44.6684	59.5479
44.9262	59.2772
45.1856	59.0076
45.4465	58.7391
45.7088	58.4718
45.9727	58.2056
46.2381	57.9405
46.505	57.6765
46.7735	57.4136
47.0435	57.1518
47.3151	56.8911
47.5883	56.6316
47.863	56.3731
48.1393	56.1157
48.4172	55.8594
48.6968	55.6041
48.9779	55.3499
49.2606	55.0968
49.545	54.8447
49.831	54.5936
50.1187	54.3436
50.4081	54.0947
50.6991	53.8468
50.9918	53.6
51.2861	53.3543
51.5822	53.1096
51.88	52.866
52.1795	52.6235
52.4807	52.382
52.7837	52.1416
53.0884	51.9023
53.3949	51.664
53.7032	51.4267
54.0132	51.1906
54.325	50.9554
54.6387	50.7213
54.9541	50.4882
55.2713	50.2562
55.5904	50.0251
55.9114	49.7951
56.2341	49.566
56.5588	49.338
56.8853	49.1109
57.2137	48.8848
57.544	48.6597
57.8762	48.4356
58.2103	48.2126
58.5464	47.9905
58.8844	47.7694
59.2243	47.5493
59.5662	47.3302
59.9101	47.1121
60.256	46.8949
60.6038	46.6788
60.9537	46.4637
61.3056	46.2495
61.6595	46.0363
62.0155	45.824
62.3735	45.6127
62.7336	45.4024
63.0957	45.193
63.46	44.9845
63.8263	44.7769
64.1948	44.5703
64.5654	44.3645
64.9382	44.1597
65.3131	43.9558
65.6901	43.7527
66.0693	43.5506
66.4508	43.3493
66.8344	43.1488
67.2202	42.9493
67.6083	42.7505
67.9986	42.5526
68.3912	42.3554
68.786	42.1591
69.1831	41.9635
69.5825	41.7687
69.9842	41.5746
70.3882	41.3809
70.7946	41.1878
71.2033	40.9955
71.6143	40.8039
72.0278	40.6131
72.4436	40.423
72.8618	40.2336
73.2825	40.0451
73.7055	39.8573
74.131	39.6704
74.559	39.4842
74.9894	39.2988
75.4223	39.1143
75.8578	38.9305
76.2957	38.7476
76.7361	38.5656
77.1792	38.3843
77.6247	38.204
78.0728	38.0244
78.5236	37.8458
78.9769	37.668
79.4328	37.491
79.8914	37.315
80.3526	37.1398
80.8165	36.9655
81.2831	36.7921
81.7523	36.6195
82.2243	36.4479
82.699	36.2772
83.1764	36.1073
83.6566	35.9384
84.1395	35.7703
84.6253	35.6031
85.1138	35.4369
85.6052	35.2715
86.0994	35.107
86.5964	34.9434
87.0964	34.7807
87.5992	34.6189
88.1049	34.4579
88.6135	34.2979
89.1251	34.1387
89.6396	33.9803
90.1571	33.8229
90.6776	33.6662
91.2011	33.5105
91.7276	33.3555
92.2571	33.2014
92.7897	33.0481
93.3254	32.8956
93.8642	32.7438
94.4061	32.5929
94.9511	32.4427
95.4993	32.2933
96.0506	32.1446
96.6051	31.9966
97.1628	31.8493
97.7237	31.7027
98.2879	31.5567
98.8553	31.4114
99.426	31.2667
100	31.1226
100.577	30.979
101.158	30.836
101.742	30.6934
102.329	30.5514
102.92	30.4098
103.514	30.2687
104.112	30.1279
104.713	29.9874
105.317	29.8495
105.925	29.7139
106.537	29.5786
107.152	29.4437
107.771	29.3091
108.393	29.1748
109.018	29.0409
109.648	28.9074
110.281	28.7743
110.917	28.6416
111.558	28.5092
112.202	28.3772
112.85	28.2457
113.501	28.1145
114.156	27.9838
114.815	27.8535
115.478	27.7237
116.145	27.5943
116.815	27.4653
117.49	27.3368
118.168	27.2087
118.85	27.0811
119.536	26.954
120.226	26.8274
120.921	26.7012
121.619	26.5756
122.321	26.4504
123.027	26.3258
123.737	26.2016
124.451	26.078
125.17	25.9549
125.893	25.8323
126.619	25.7102
127.35	25.5887
128.086	25.4677
128.825	25.3473
129.569	25.2274
130.317	25.1081
131.069	24.9893
131.826	24.8711
132.587	24.7535
133.352	24.6364
134.122	24.5199
134.896	24.404
135.675	24.2886
136.458	24.1739
137.246	24.0597
138.038	23.9461
138.835	23.8331
139.637	23.7206
140.443	23.6084
141.254	23.4965
142.069	23.3852
142.889	23.2745
143.714	23.1643
144.544	23.0548
145.378	22.9458
146.218	22.8375
147.062	22.7297
147.911	22.6225
148.765	22.516
149.624	22.41
150.487	22.3046
151.356	22.1998
152.23	22.0956
153.109	21.9919
153.993	21.8889
154.882	21.7864
155.776	21.6845
156.675	21.5832
157.58	21.4824
158.489	21.3822
159.404	21.2826
160.325	21.1835
161.25	21.085
162.181	20.9869
163.117	20.8894
164.059	20.7925
165.006	20.696
165.959	20.6
166.917	20.5046
167.88	20.4096
168.85	20.315
169.824	20.221
170.805	20.1273
171.791	20.0341
172.783	19.9413
173.78	19.8489
174.783	19.7569
175.792	19.6652
176.807	19.5739
177.828	19.4829
178.855	19.3923
179.887	19.302
180.926	19.2122
181.97	19.1227
183.021	19.0336
184.077	18.9449
185.14	18.8565
186.209	18.7686
187.284	18.681
188.365	18.5938
189.452	18.507
190.546	18.4206
191.646	18.3346
192.752	18.2489
193.865	18.1637
194.984	18.0788
196.11	17.9944
197.242	17.9103
198.381	17.8266
199.526	17.7433
200.678	17.6604
201.837	17.5778
203.002	17.4957
204.174	17.4139
205.353	17.3325
206.538	17.2515
207.73	17.1709
208.93	17.0906
210.136	17.0107
211.349	16.931
212.569	16.8516
213.796	16.7727
215.03	16.6941
216.272	16.6158
217.52	16.538
218.776	16.4605
220.039	16.3834
221.309	16.3066
222.587	16.2303
223.872	16.1543
225.165	16.0788
226.464	16.0036
227.772	15.9288
229.087	15.8544
230.409	15.7803
231.739	15.7067
233.077	15.6335
234.423	15.5606
235.776	15.4881
237.137	15.4161
238.506	15.3444
239.883	15.2731
241.268	15.2022
242.661	15.1316
244.062	15.0615
245.471	14.9917
246.888	14.9223
248.313	14.8533
249.747	14.7847
251.189	14.7164
252.639	14.6485
254.097	14.581
255.564	14.5138
257.04	14.447
258.523	14.3805
260.016	14.3143
261.517	14.2485
263.027	14.183
264.545	14.1179
266.073	14.0531
267.609	13.9885
269.153	13.9243
270.707	13.8604
272.27	13.7967
273.842	13.7333
275.423	13.6702
277.013	13.6073
278.612	13.5447
280.221	13.4824
281.838	13.4208
283.465	13.3594
285.102	13.2983
286.748	13.2373
288.403	13.1766
290.068	13.1162
291.743	13.056
293.427	12.996
295.121	12.9363
296.825	12.8768
298.538	12.8176
300.262	12.7586
301.995	12.6999
303.739	12.6414
305.492	12.5832
307.256	12.5253
309.03	12.4676
310.814	12.4101
312.608	12.353
314.413	12.2961
316.228	12.2395
318.053	12.1831
319.89	12.127
321.736	12.0712
323.594	12.0156
325.462	11.9603
327.341	11.9053
329.23	11.8506
331.131	11.7961
333.043	11.7419
334.965	11.688
336.899	11.6344
338.844	11.581
340.8	11.5279
342.768	11.475
344.747	11.4225
346.737	11.3702
348.739	11.3181
350.752	11.2663
352.777	11.2147
354.813	11.1633
356.862	11.1122
358.922	11.0614
360.994	11.0108
363.078	10.9605
365.174	10.9105
367.282	10.8607
369.403	10.8112
371.535	10.762
373.68	10.713
375.837	10.6642
378.007	10.6158
380.189	10.5676
382.384	10.5196
384.592	10.472
386.812	10.4245
389.045	10.3773
391.291	10.3304
393.55	10.2837
395.822	10.2373
398.107	10.1911
400.405	10.1451
402.717	10.0994
405.042	10.0539
407.38	10.0086
409.732	9.9636
412.098	9.91878
414.477	9.87416
416.869	9.82975
419.276	9.78555
421.697	9.74154
424.131	9.69771
426.58	9.65409
429.042	9.61066
431.519	9.56743
434.01	9.5244
436.516	9.48157
439.036	9.43894
441.57	9.39652
444.12	9.35429
446.684	9.31227
449.262	9.27046
451.856	9.22884
454.465	9.18744
457.088	9.14623
459.727	9.10523
462.381	9.06444
465.05	9.02385
467.735	8.98346
470.435	8.94328
473.151	8.9033
475.883	8.86352
478.63	8.82395
481.393	8.78457
484.172	8.74539
486.968	8.70641
489.779	8.66763
492.606	8.62904
495.45	8.59064
498.31	8.55244
501.187	8.51443
504.081	8.47662
506.991	8.439
509.918	8.40157
512.861	8.36433
515.822	8.32729
518.8	8.29043
521.795	8.25376
524.807	8.21729
527.837	8.181
530.884	8.14489
533.949	8.10897
537.032	8.07323
540.132	8.03767
543.25	8.00228
546.387	7.96707
549.541	7.93204
552.713	7.89717
555.904	7.86247
559.114	7.82793
562.341	7.79355
565.588	7.75934
568.853	7.72528
572.137	7.69138
575.44	7.65765
578.762	7.62408
582.103	7.59067
585.464	7.55743
588.844	7.52436
592.243	7.49145
595.662	7.4587
599.101	7.42612
602.56	7.39371
606.038	7.36147
609.537	7.32939
613.056	7.29748
616.595	7.26573
620.155	7.23415
623.735	7.20274
627.336	7.1715
630.957	7.14041
634.6	7.1095
638.263	7.07874
641.948	7.04815
645.654	7.01772
649.382	6.98744
653.131	6.95733
656.901	6.92737
660.693	6.89756
664.508	6.8679
668.344	6.83839
672.202	6.80903
676.083	6.77981
679.986	6.74925
683.912	6.71821
687.86	6.68733
691.831	6.6566
695.825	6.62602
699.842	6.59558
703.882	6.56522
707.946	6.535
712.033	6.50492
716.143	6.47498
720.278	6.44519
724.436	6.41555
728.618	6.38605
732.825	6.3567
737.055	6.3275
741.31	6.29845
745.59	6.26955
749.894	6.2408
754.223	6.21221
758.578	6.18377
762.957	6.15549
767.361	6.12736
771.792	6.09939
776.247	6.07158
780.728	6.04392
785.236	6.01643
789.769	5.98909
794.328	5.96191
798.914	5.9349
803.526	5.90804
808.165	5.88135
812.831	5.85482
817.523	5.82845
822.243	5.80224
826.99	5.7762
831.764	5.75031
836.566	5.72459
841.395	5.69903
846.253	5.67363
851.138	5.6484
856.052	5.62332
860.994	5.59841
865.964	5.57366
870.964	5.54906
875.992	5.52462
881.049	5.50035
886.135	5.47623
891.251	5.45226
896.396	5.42845
901.571	5.40479
906.776	5.38129
912.011	5.35793
917.276	5.33473
922.571	5.31167
927.897	5.28876
933.254	5.26598
938.642	5.24336
944.061	5.22086
949.511	5.19851
954.993	5.17629
960.506	5.1542
966.051	5.13224
971.628	5.1104
977.237	5.08868
982.879	5.06708
988.553	5.0456
994.26	5.02423
1000	5.00296
1005.77	4.98179
1011.58	4.96073
1017.42	4.93976
1023.29	4.91887
1029.2	4.89807
1035.14	4.87735
1041.12	4.8567
1047.13	4.83611
1053.17	4.81593
1059.25	4.79611
1065.37	4.77636
1071.52	4.75667
1077.71	4.73704
1083.93	4.71748
1090.18	4.69799
1096.48	4.67857
1102.81	4.65921
1109.17	4.63993
1115.58	4.62072
1122.02	4.60158
1128.5	4.58252
1135.01	4.56353
1141.56	4.54461
1148.15	4.52577
1154.78	4.50701
1161.45	4.48833
1168.15	4.46972
1174.9	4.4512
1181.68	4.43276
1188.5	4.41439
1195.36	4.39612
1202.26	4.37792
1209.21	4.35981
1216.19	4.34178
1223.21	4.32384
1230.27	4.30599
1237.37	4.28823
1244.51	4.27055
1251.7	4.25296
1258.93	4.23547
1266.19	4.21806
1273.5	4.20074
1280.86	4.18352
1288.25	4.16639
1295.69	4.14935
1303.17	4.13241
1310.69	4.11556
1318.26	4.0988
1325.87	4.08214
1333.52	4.06558
1341.22	4.04911
1348.96	4.03274
1356.75	4.01647
1364.58	4.00029
1372.46	3.98422
1380.38	3.96824
1388.35	3.95235
1396.37	3.93657
1404.43	3.92083
1412.54	3.90515
1420.69	3.88957
1428.89	3.87408
1437.14	3.8587
1445.44	3.84341
1453.78	3.82822
1462.18	3.81313
1470.62	3.79814
1479.11	3.78325
1487.65	3.76845
1496.24	3.75376
1504.87	3.73916
1513.56	3.72465
1522.3	3.71025
1531.09	3.69594
1539.93	3.68173
1548.82	3.66761
1557.76	3.65358
1566.75	3.63965
1575.8	3.62581
1584.89	3.61207
1594.04	3.59841
1603.25	3.58485
1612.5	3.57137
1621.81	3.55798
1631.17	3.54468
1640.59	3.53146
1650.06	3.51832
1659.59	3.50527
1669.17	3.4923
1678.8	3.4794
1688.5	3.46658
1698.24	3.45383
1708.05	3.44116
1717.91	3.42855
1727.83	3.41602
1737.8	3.40354
1747.83	3.39113
1757.92	3.37878
1768.07	3.36648
1778.28	3.35425
1788.55	3.34207
1798.87	3.32995
1809.26	3.3179
1819.7	3.3059
1830.21	3.29397
1840.77	3.2821
1851.4	3.27029
1862.09	3.25854
1872.84	3.24685
1883.65	3.23523
1894.52	3.22366
1905.46	3.21217
1916.46	3.20073
1927.52	3.18935
1938.65	3.17804
1949.84	3.16679
1961.1	3.15561
1972.42	3.14448
1983.81	3.13342
1995.26	3.12242
2006.78	3.11148
2018.37	3.1006
2030.02	3.08979
2041.74	3.07903
2053.53	3.06834
2065.38	3.05771
2077.3	3.04713
2089.3	3.03662
2101.36	3.02616
2113.49	3.01573
2125.69	3.00537
2137.96	2.99507
2150.3	2.98482
2162.72	2.97463
2175.2	2.9645
2187.76	2.95444
2200.39	2.94443
2213.09	2.93448
2225.87	2.92459
2238.72	2.91477
2251.65	2.905
2264.64	2.8953
2277.72	2.88566
2290.87	2.87607
2304.09	2.86655
2317.39	2.85709
2330.77	2.84769
2344.23	2.83836
2357.76	2.82908
2371.37	2.81986
2385.06	2.81071
2398.83	2.80161
2412.68	2.79258
2426.61	2.7836
2440.62	2.77469
2454.71	2.76583
2468.88	2.75704
2483.13	2.7483
2497.47	2.73962
2511.89	2.731
2526.39	2.72243
2540.97	2.71392
2555.64	2.70547
2570.4	2.69707
2585.23	2.68872
2600.16	2.68043
2615.17	2.67219
2630.27	2.664
2645.45	2.65587
2660.73	2.64778
2676.09	2.63974
2691.53	2.63174
2707.07	2.6238
2722.7	2.61589
2738.42	2.60803
2754.23	2.60021
2770.13	2.59243
2786.12	2.58469
2802.21	2.577
2818.38	2.5694
2834.65	2.56185
2851.02	2.55433
2867.48	2.54684
2884.03	2.5394
2900.68	2.53199
2917.43	2.52462
2934.27	2.51728
2951.21	2.50999
2968.25	2.50273
2985.38	2.49551
3002.62	2.48833
3019.95	2.48119
3037.39	2.47408
3054.92	2.46702
3072.56	2.46
3090.3	2.45302
3108.14	2.44607
3126.08	2.43917
3144.13	2.43231
3162.28	2.42549
3180.53	2.41871
3198.9	2.41197
3217.36	2.40527
3235.94	2.39861
3254.62	2.392
3273.41	2.38542
3292.3	2.37889
3311.31	2.3724
3330.43	2.36595
3349.65	2.35954
3368.99	2.35317
3388.44	2.34684
3408	2.34055
3427.68	2.33431
3447.47	2.3281
3467.37	2.32193
3487.39	2.31581
3507.52	2.30971
3527.77	2.30365
3548.13	2.29763
3568.62	2.29164
3589.22	2.2857
3609.94	2.27979
3630.78	2.27393
3651.74	2.2681
3672.82	2.26231
3694.03	2.25657
3715.35	2.25086
3736.8	2.24519
3758.37	2.23956
3780.07	2.23398
3801.89	2.22842
3823.84	2.22291
3845.92	2.21744
3868.12	2.212
3890.45	2.20661
3912.91	2.20125
3935.5	2.19593
3958.22	2.19064
3981.07	2.18539
4004.05	2.18018
4027.17	2.175
4050.42	2.16986
4073.8	2.16475
4097.32	2.15967
4120.98	2.15463
4144.77	2.14963
4168.69	2.14465
4192.76	2.1397
4216.97	2.13479
4241.31	2.1299
4265.8	2.12504
4290.42	2.12022
4315.19	2.11542
4340.1	2.11066
4365.16	2.10592
4390.36	2.10122
4415.7	2.09655
4441.2	2.09191
4466.84	2.08729
4492.62	2.08271
4518.56	2.07816
4544.65	2.07364
4570.88	2.06916
4597.27	2.0647
4623.81	2.06027
4650.5	2.05587
4677.35	2.05151
4704.35	2.04717
4731.51	2.04286
4758.83	2.03858
4786.3	2.03434
4813.93	2.03012
4841.72	2.02593
4869.68	2.02177
4897.79	2.01763
4926.06	2.01353
4954.5	2.00945
4983.1	2.0054
5011.87	2.00138
5040.81	1.99739
5069.91	1.99343
5099.18	1.98949
5128.61	1.98558
5158.22	1.9817
5188	1.97785
5217.95	1.97402
5248.07	1.97023
5278.37	1.96646
5308.84	1.96272
5339.49	1.959
5370.32	1.95531
5401.32	1.95165
5432.5	1.94802
5463.87	1.94441
5495.41	1.94083
5527.13	1.93728
5559.04	1.93375
5591.14	1.93024
5623.41	1.92676
5655.88	1.92331
5688.53	1.91988
5721.37	1.91647
5754.4	1.91309
5787.62	1.90973
5821.03	1.9064
5854.64	1.9031
5888.44	1.89981
5922.43	1.89655
5956.62	1.89332
5991.01	1.89011
6025.6	1.88693
6060.38	1.88376
6095.37	1.88063
6130.56	1.87751
6165.95	1.87442
6201.55	1.87135
6237.35	1.86831
6273.36	1.86528
6309.57	1.86228
6346	1.8593
6382.63	1.85635
6419.48	1.85341
6456.54	1.85049
6493.82	1.8476
6531.31	1.84472
6569.01	1.84187
6606.93	1.83903
6645.08	1.83621
6683.44	1.83341
6722.02	1.83063
6760.83	1.82786
6799.86	1.82511
6839.12	1.82237
6878.6	1.81965
6918.31	1.81694
6958.25	1.81425
6998.42	1.81157
7038.82	1.80877
7079.46	1.80598
7120.33	1.80321
7161.43	1.80047
7202.78	1.79774
7244.36	1.79504
7286.18	1.79236
7328.25	1.78969
7370.55	1.78705
7413.1	1.78442
7455.9	1.78182
7498.94	1.77923
7542.23	1.77667
7585.78	1.77412
7629.57	1.77159
7673.61	1.76909
7717.92	1.7666
7762.47	1.76413
7807.28	1.76168
7852.36	1.75924
7897.69	1.75683
7943.28	1.75444
7989.14	1.75206
8035.26	1.7497
8081.65	1.74736
8128.31	1.74504
8175.23	1.74273
8222.43	1.74045
8269.9	1.73818
8317.64	1.73593
8365.66	1.73369
8413.95	1.73148
8462.53	1.72928
8511.38	1.7271
8560.52	1.72494
8609.94	1.72279
8659.64	1.72066
8709.64	1.71855
8759.92	1.71645
8810.49	1.71437
8861.35	1.71231
8912.51	1.71026
8963.96	1.70823
9015.71	1.70622
9067.76	1.70422
9120.11	1.70224
9172.76	1.70028
9225.71	1.69833
9278.97	1.69639
9332.54	1.69448
9386.42	1.69258
9440.61	1.69069
9495.11	1.68882
9549.93	1.68696
9605.06	1.68512
9660.51	1.6833
9716.28	1.68149
9772.37	1.67969
9828.79	1.67791
9885.53	1.67615
9942.6	1.6744
10000	1.67266
10057.7	1.67094
10115.8	1.66924
10174.2	1.66754
10232.9	1.66587
10292	1.6642
10351.4	1.66255
10411.2	1.66092
10471.3	1.6593
10531.7	1.65769
10592.5	1.6561
10653.7	1.65452
10715.2	1.65295
10777.1	1.6514
10839.3	1.64986
10901.8	1.64833
10964.8	1.64682
11028.1	1.64532
11091.7	1.64384
11155.8	1.64237
11220.2	1.64091
11285	1.63946
11350.1	1.63802
11415.6	1.6366
11481.5	1.63519
11547.8	1.6338
11614.5	1.63241
11681.5	1.63104
11749	1.62969
11816.8	1.62834
11885	1.627
11953.6	1.62568
12022.6	1.62437
12092.1	1.62307
12161.9	1.62179
12232.1	1.62051
12302.7	1.61925
12373.7	1.618
12445.1	1.61676
12517	1.61553
12589.3	1.61432
12661.9	1.61311
12735	1.61192
12808.6	1.61074
12882.5	1.60957
12956.9	1.60841
13031.7	1.60726
13106.9	1.60612
13182.6	1.60499
13258.7	1.60387
13335.2	1.60277
13412.2	1.60167
13489.6	1.60059
13567.5	1.59952
13645.8	1.59845
13724.6	1.5974
13803.8	1.59636
13883.5	1.59532
13963.7	1.5943
14044.3	1.59329
14125.4	1.59229
14206.9	1.59129
14288.9	1.59031
14371.4	1.58934
14454.4	1.58838
14537.8	1.58742
14621.8	1.58648
14706.2	1.58555
14791.1	1.58462
14876.5	1.58371
14962.4	1.5828
15048.7	1.58191
15135.6	1.58102
15223	1.58014
15310.9	1.57927
15399.3	1.57842
15488.2	1.57756
15577.6	1.57672
15667.5	1.57589
15758	1.57507
15848.9	1.57425
15940.4	1.57345
16032.5	1.57265
16125	1.57186
16218.1	1.57108
16311.7	1.57031
16405.9	1.56954
16500.6	1.56879
16595.9	1.56804
16691.7	1.5673
16788	1.56657
16885	1.56585
16982.4	1.56513
17080.5	1.56443
17179.1	1.56373
17278.3	1.56304
17378	1.56235
17478.3	1.56168
17579.2	1.56101
17680.7	1.56035
17782.8	1.5597
17885.5	1.55905
17988.7	1.55842
18092.6	1.55779
18197	1.55716
18302.1	1.55655
18407.7	1.55594
18514	1.55534
18620.9	1.55475
18728.4	1.55416
18836.5	1.55358
18945.2	1.55301
19054.6	1.55244
19164.6	1.55188
19275.2	1.55133
19386.5	1.55079
19498.4	1.55025
19611	1.54972
19724.2	1.54919
19838.1	1.54867
19952.6	1.54816
20067.8	1.54765
20183.7	1.54715
20300.2	1.54666
20417.4	1.54618
20535.3	1.5457
20653.8	1.54522
20773	1.54475
20893	1.54429
21013.6	1.54384
21134.9	1.54339
21256.9	1.54294
21379.6	1.5425
21503	1.54207
21627.2	1.54165
21752	1.54123
21877.6	1.54081
22003.9	1.5404
22130.9	1.54
22258.7	1.5396
22387.2	1.53921
22516.5	1.53882
22646.4	1.53844
22777.2	1.53806
22908.7	1.53769
23040.9	1.53733
23173.9	1.53697
23307.7	1.53661
23442.3	1.53627
23577.6	1.53592
23713.7	1.53558
23850.6	1.53525
23988.3	1.53492
24126.8	1.53459
24266.1	1.53428
24406.2	1.53396
24547.1	1.53365
24688.8	1.53335
24831.3	1.53305
24974.7	1.53275
25118.9	1.53246
25263.9	1.53217
25409.7	1.53189
25556.4	1.53162
25704	1.53134
25852.3	1.53108
26001.6	1.53081
26151.7	1.53055
26302.7	1.5303
26454.5	1.53005
26607.3	1.5298
26760.9	1.52956
26915.3	1.52932
27070.7	1.52909
27227	1.52886
27384.2	1.52864
27542.3	1.52841
27701.3	1.5282
27861.2	1.52798
28022.1	1.52778
28183.8	1.52757
28346.5	1.52737
28510.2	1.52717
28674.8	1.52698
28840.3	1.52679
29006.8	1.5266
29174.3	1.52642
29342.7	1.52624
29512.1	1.52606
29682.5	1.52589
29853.8	1.52572
30026.2	1.52556
30199.5	1.5254
30373.9	1.52524
30549.2	1.52508
30725.6	1.52493
30903	1.52478
31081.4	1.52464
31260.8	1.5245
31441.3	1.52436
31622.8	1.52423
31805.3	1.52409
31989	1.52397
32173.6	1.52384
32359.4	1.52372
32546.2	1.5236
32734.1	1.52348
32923	1.52337
33113.1	1.52326
33304.3	1.52315
33496.5	1.52305
33689.9	1.52295
33884.4	1.52285
34080	1.52275
34276.8	1.52266
34474.7	1.52257
34673.7	1.52248
34873.9	1.52239
35075.2	1.52231
35277.7	1.52223
35481.3	1.52216
35686.2	1.52208
35892.2	1.52201
36099.4	1.52194
36307.8	1.52187
36517.4	1.52181
36728.2	1.52174
36940.3	1.52169
37153.5	1.52163
37368	1.52157
37583.7	1.52152
37800.7	1.52147
38018.9	1.52142
38238.4	1.52138
38459.2	1.52133
38681.2	1.52129
38904.5	1.52125
39129.1	1.52121
39355	1.52118
39582.2	1.52115
39810.7	1.52111
40040.5	1.52109
40271.7	1.52106
40504.2	1.52103
40738	1.52101
40973.2	1.52099
41209.8	1.52097
41447.7	1.52095
41686.9	1.52094
41927.6	1.52092
42169.7	1.52091
42413.1	1.5209
42658	1.52089
42904.2	1.52089
43151.9	1.52088
43401	1.52088
43651.6	1.52088
43903.6	1.52088
44157	1.52088
44412	1.52089
44668.4	1.52089
44926.2	1.5209
45185.6	1.52091
45446.5	1.52092
45708.8	1.52093
45972.7	1.52094
46238.1	1.52096
46505	1.52097
46773.5	1.52099
47043.5	1.52101
47315.1	1.52103
47588.3	1.52105
47863	1.52107
48139.3	1.5211
48417.2	1.52112
48696.8	1.52115
48977.9	1.52118
49260.6	1.52121
49545	1.52124
49831	1.52127
50118.7	1.5213
50408.1	1.52134
50699.1	1.52137
50991.8	1.52141
51286.1	1.52145
51582.2	1.52149
51880	1.52153
52179.5	1.52157
52480.7	1.52161
52783.7	1.52165
53088.4	1.5217
53394.9	1.52174
53703.2	1.52179
54013.2	1.52184
54325	1.52189
54638.7	1.52194
54954.1	1.52199
55271.3	1.52204
55590.4	1.52209
55911.4	1.52214
56234.1	1.52219
56558.8	1.52225
56885.3	1.5223
57213.7	1.52236
57544	1.52242
57876.2	1.52248
58210.3	1.52253
58546.4	1.52259
58884.4	1.52265
59224.3	1.52271
59566.2	1.52278
59910.1	1.52284
60256	1.5229
60603.8	1.52297
60953.7	1.52303
61305.6	1.52309
61659.5	1.52316
62015.5	1.52323
62373.5	1.52329
62733.6	1.52336
63095.7	1.52343
63460	1.5235
63826.3	1.52357
64194.8	1.52364
64565.4	1.52371
64938.2	1.52378
65313.1	1.52385
65690.1	1.52392
66069.3	1.52399
66450.8	1.52407
66834.4	1.52414
67220.2	1.52421
67608.3	1.52429
67998.6	1.52436
68391.2	1.52444
68786	1.52451
69183.1	1.52459
69582.5	1.52466
69984.2	1.52474
70388.2	1.52482
70794.6	1.52489
71203.3	1.52497
71614.3	1.52505
72027.8	1.52513
72443.6	1.52521
72861.8	1.52529
73282.5	1.52536
73705.5	1.52544
74131	1.52552
74559	1.5256
74989.4	1.52568
75422.3	1.52576
75857.8	1.52585
76295.7	1.52593
76736.1	1.52601
77179.2	1.52609
77624.7	1.52617
78072.8	1.52625
78523.6	1.52633
78976.9	1.52642
79432.8	1.5265
79891.4	1.52658
80352.6	1.52666
80816.5	1.52675
81283.1	1.52683
81752.3	1.52691
82224.3	1.52699
82699	1.52708
83176.4	1.52716
83656.6	1.52724
84139.5	1.52733
84625.3	1.52741
85113.8	1.52749
85605.2	1.52758
86099.4	1.52766
86596.4	1.52774
87096.4	1.52783
87599.2	1.52791
88104.9	1.528
88613.5	1.52808
89125.1	1.52816
89639.6	1.52825
90157.1	1.52833
90677.6	1.52841
91201.1	1.5285
91727.6	1.52858
92257.1	1.52866
92789.7	1.52875
93325.4	1.52883
93864.2	1.52892
94406.1	1.529
94951.1	1.52908
95499.3	1.52917
96050.6	1.52925
96605.1	1.52933
97162.8	1.52941
97723.7	1.5295
98287.9	1.52958
98855.3	1.52966
99426	1.52975
100000	1.52983
100577	1.52991
101158	1.52999
101742	1.53007
102329	1.53016
102920	1.53024
103514	1.53032
104112	1.5304
104713	1.53048
105317	1.53056
105925	1.53064
106537	1.53073
107152	1.53081
107771	1.53089
108393	1.53097
109018	1.53105
109648	1.53113
110281	1.53121
110917	1.53129
111558	1.53137
112202	1.53144
112850	1.53152
113501	1.5316
114156	1.53168
114815	1.53176
115478	1.53184
116145	1.53191
116815	1.53199
117490	1.53207
118168	1.53215
118850	1.53222
119536	1.5323
120226	1.53238
120921	1.53245
121619	1.53253
122321	1.5326
123027	1.53268
123737	1.53275
124451	1.53283
125170	1.5329
125893	1.53298
126619	1.53305
127350	1.53312
128086	1.5332
128825	1.53327
129569	1.53334
130317	1.53341
131069	1.53349
131826	1.53356
132587	1.53363
133352	1.5337
134122	1.53377
134896	1.53384
135675	1.53391
136458	1.53398
137246	1.53405
138038	1.53412
138835	1.53419
139637	1.53426
140443	1.53433
141254	1.53439
142069	1.53446
142889	1.53453
143714	1.53459
144544	1.53466
145378	1.53473
146218	1.53479
147062	1.53486
147911	1.53492
148765	1.53499
149624	1.53505
150487	1.53512
151356	1.53518
152230	1.53524
153109	1.53531
153993	1.53537
154882	1.53543
155776	1.5355
156675	1.53556
157580	1.53562
158489	1.53568
159404	1.53574
160325	1.5358
161250	1.53586
162181	1.53592
163117	1.53598
164059	1.53604
165006	1.5361
165959	1.53615
166917	1.53621
167880	1.53627
168850	1.53633
169824	1.53638
170805	1.53644
171791	1.53649
172783	1.53655
173780	1.5366
174783	1.53666
175792	1.53671
176807	1.53677
177828	1.53682
178855	1.53687
179887	1.53693
180926	1.53698
181970	1.53703
183021	1.53708
184077	1.53713
185140	1.53719
186209	1.53724
187284	1.53729
188365	1.53734
189452	1.53739
190546	1.53743
191646	1.53748
192752	1.53753
193865	1.53758
194984	1.53763
196110	1.53767
197242	1.53772
198381	1.53777
199526	1.53781
200678	1.53786
201837	1.5379
203002	1.53795
204174	1.53799
205353	1.53804
206538	1.53808
207730	1.53812
208930	1.53817
210136	1.53821
211349	1.53825
212569	1.53829
213796	1.53834
215030	1.53838
216272	1.53842
217520	1.53846
218776	1.5385
220039	1.53854
221309	1.53858
222587	1.53862
223872	1.53865
225165	1.53869
226464	1.53873
227772	1.53877
229087	1.5388
230409	1.53884
231739	1.53888
233077	1.53891
234423	1.53895
235776	1.53898
237137	1.53902
238506	1.53905
239883	1.53909
241268	1.53912
242661	1.53915
244062	1.53919
245471	1.53922
246888	1.53925
248313	1.53928
249747	1.53932
251189	1.53935
252639	1.53938
254097	1.53941
255564	1.53944
257040	1.53947
258523	1.5395
260016	1.53953
261517	1.53956
263027	1.53959
264545	1.53961
266073	1.53964
267609	1.53967
269153	1.5397
270707	1.53972
272270	1.53975
273842	1.53978
275423	1.5398
277013	1.53983
278612	1.53985
280221	1.53988
281838	1.5399
283465	1.53992
285102	1.53995
286748	1.53997
288403	1.54
290068	1.54002
291743	1.54004
293427	1.54006
295121	1.54008
296825	1.54011
298538	1.54013
300262	1.54015
301995	1.54017
303739	1.54019
305492	1.54021
307256	1.54023
309030	1.54025
310814	1.54027
312608	1.54029
314413	1.54031
316228	1.54032
318053	1.54034
319890	1.54036
321736	1.54038
323594	1.54039
325462	1.54041
327341	1.54043
329230	1.54044
331131	1.54046
333043	1.54047
334965	1.54049
336899	1.5405
338844	1.54052
340800	1.54053
342768	1.54055
344747	1.54056
346737	1.54058
348739	1.54059
350752	1.5406
352777	1.54062
354813	1.54063
356862	1.54064
358922	1.54065
360994	1.54066
363078	1.54068
365174	1.54069
367282	1.5407
369403	1.54071
371535	1.54072
373680	1.54073
375837	1.54074
378007	1.54075
380189	1.54076
382384	1.54077
384592	1.54078
386812	1.54079
389045	1.5408
391291	1.5408
393550	1.54081
395822	1.54082
398107	1.54083
400405	1.54084
402717	1.54084
405042	1.54085
407380	1.54086
409732	1.54087
412098	1.54087
414477	1.54088
416869	1.54088
419276	1.54089
421697	1.5409
424131	1.5409
426580	1.54091
429042	1.54091
431519	1.54092
434010	1.54092
436516	1.54093
439036	1.54093
441570	1.54093
444120	1.54094
446684	1.54094
449262	1.54095
451856	1.54095
454465	1.54095
457088	1.54096
459727	1.54096
462381	1.54096
465050	1.54097
467735	1.54097
470435	1.54097
473151	1.54097
475883	1.54097
478630	1.54098
481393	1.54098
484172	1.54098
486968	1.54098
489779	1.54098
492606	1.54098
495450	1.54098
498310	1.54099
501187	1.54099
504081	1.54099
506991	1.54099
509918	1.54099
512861	1.54099
515822	1.54099
518800	1.54099
521795	1.54099
524807	1.54099
527837	1.54099
530884	1.54099
533949	1.54099
537032	1.54099
540132	1.54099
543250	1.54099
546387	1.54099
549541	1.54098
552713	1.54098
555904	1.54098
559114	1.54098
562341	1.54098
565588	1.54098
568853	1.54098
572137	1.54098
575440	1.54097
578762	1.54097
582103	1.54097
585464	1.54097
588844	1.54097
592243	1.54096
595662	1.54096
599101	1.54096
602560	1.54096
606038	1.54096
609537	1.54095
613056	1.54095
616595	1.54095
620155	1.54095
623735	1.54095
627336	1.54094
630957	1.54094
634600	1.54094
638263	1.54094
641948	1.54093
645654	1.54093
649382	1.54093
653131	1.54093
656901	1.54092
660693	1.54092
664508	1.54092
668344	1.54092
672202	1.54091
676083	1.54091
679986	1.54091
683912	1.54091
687860	1.5409
691831	1.5409
695825	1.5409
699842	1.5409
703882	1.54089
707946	1.54089
712033	1.54089
716143	1.54089
720278	1.54088
724436	1.54088
728618	1.54088
732825	1.54088
737055	1.54088
741310	1.54087
745590	1.54087
749894	1.54087
754223	1.54087
758578	1.54086
762957	1.54086
767361	1.54086
771792	1.54086
776247	1.54086
780728	1.54085
785236	1.54085
789769	1.54085
794328	1.54085
798914	1.54085
803526	1.54084
808165	1.54084
812831	1.54084
817523	1.54084
822243	1.54084
826990	1.54083
831764	1.54083
836566	1.54083
841395	1.54083
846253	1.54083
851138	1.54083
856052	1.54082
860994	1.54082
865964	1.54082
870964	1.54082
875992	1.54082
881049	1.54081
886135	1.54081
891251	1.54081
896396	1.54081
901571	1.54081
906776	1.54081
912011	1.5408
917276	1.5408
922571	1.5408
927897	1.5408
933254	1.5408
938642	1.5408
944061	1.5408
949511	1.54079
954993	1.54079
960506	1.54079
966051	1.54079
971628	1.54079
977237	1.54079
982879	1.54079
988553	1.54078
994260	1.54078
1e+06	1.54078
1.00577e+06	1.54078
1.01158e+06	1.54078
1.01742e+06	1.54078
1.02329e+06	1.54078
1.0292e+06	1.54077
1.03514e+06	1.54077
1.04112e+06	1.54077
1.04713e+06	1.54077
1.05317e+06	1.54077
1.05925e+06	1.54077
1.06537e+06	1.54077
1.07152e+06	1.54077
1.07771e+06	1.54076
1.08393e+06	1.54076
1.09018e+06	1.54076
1.09648e+06	1.54076
1.10281e+06	1.54076
1.10917e+06	1.54076
1.11558e+06	1.54076
1.12202e+06	1.54076
1.1285e+06	1.54075
1.13501e+06	1.54075
1.14156e+06	1.54075
1.14815e+06	1.54075
1.15478e+06	1.54075
1.16145e+06	1.54075
1.16815e+06	1.54075
1.1749e+06	1.54075
1.18168e+06	1.54075
1.1885e+06	1.54074
1.19536e+06	1.54074
1.20226e+06	1.54074
1.20921e+06	1.54074
1.21619e+06	1.54074
1.22321e+06	1.54074
1.23027e+06	1.54074
1.23737e+06	1.54074
1.24451e+06	1.54074
1.2517e+06	1.54074
1.25893e+06	1.54073
1.26619e+06	1.54073
1.2735e+06	1.54073
1.28086e+06	1.54073
1.28825e+06	1.54073
1.29569e+06	1.54073
1.30317e+06	1.54073
1.31069e+06	1.54073
1.31826e+06	1.54073
1.32587e+06	1.54073
1.33352e+06	1.54072
1.34122e+06	1.54072
1.34896e+06	1.54072
1.35675e+06	1.54072
1.36458e+06	1.54072
1.37246e+06	1.54072
1.38038e+06	1.54072
1.38835e+06	1.54072
1.39637e+06	1.54072
1.40443e+06	1.54072
1.41254e+06	1.54072
1.42069e+06	1.54072
1.42889e+06	1.54071
1.43714e+06	1.54071
1.44544e+06	1.54071
1.45378e+06	1.54071
1.46218e+06	1.54071
1.47062e+06	1.54071
1.47911e+06	1.54071
1.48765e+06	1.54071
1.49624e+06	1.54071
1.50487e+06	1.54071
1.51356e+06	1.54071
1.5223e+06	1.54071
1.53109e+06	1.54071
1.53993e+06	1.5407
1.54882e+06	1.5407
1.55776e+06	1.5407
1.56675e+06	1.5407
1.5758e+06	1.5407
1.58489e+06	1.5407
1.59404e+06	1.5407
1.60325e+06	1.5407
1.6125e+06	1.5407
1.62181e+06	1.5407
1.63117e+06	1.5407
1.64059e+06	1.5407
1.65006e+06	1.5407
1.65959e+06	1.5407
1.66917e+06	1.54069
1.6788e+06	1.54069
1.6885e+06	1.54069
1.69824e+06	1.54069
1.70805e+06	1.54069
1.71791e+06	1.54069
1.72783e+06	1.54069
1.7378e+06	1.54069
1.74783e+06	1.54069
1.75792e+06	1.54069
1.76807e+06	1.54069
1.77828e+06	1.54069
1.78855e+06	1.54069
1.79887e+06	1.54069
1.80926e+06	1.54069
1.8197e+06	1.54069
1.83021e+06	1.54069
1.84077e+06	1.54068
1.8514e+06	1.54068
1.86209e+06	1.54068
1.87284e+06	1.54068
1.88365e+06	1.54068
1.89452e+06	1.54068
1.90546e+06	1.54068
1.91646e+06	1.54068
1.92752e+06	1.54068
1.93865e+06	1.54068
1.94984e+06	1.54068
1.9611e+06	1.54068
1.97242e+06	1.54068
1.98381e+06	1.54068
1.99526e+06	1.54068
2.00678e+06	1.54068
2.01837e+06	1.54068
2.03002e+06	1.54068
2.04174e+06	1.54068
2.05353e+06	1.54067
2.06538e+06	1.54067
2.0773e+06	1.54067
2.0893e+06	1.54067
2.10136e+06	1.54067
2.11349e+06	1.54067
2.12569e+06	1.54067
2.13796e+06	1.54067
2.1503e+06	1.54067
2.16272e+06	1.54067
2.1752e+06	1.54067
2.18776e+06	1.54067
2.20039e+06	1.54067
2.21309e+06	1.54067
2.22587e+06	1.54067
2.23872e+06	1.54067
2.25165e+06	1.54067
2.26464e+06	1.54067
2.27772e+06	1.54067
2.29087e+06	1.54067
2.30409e+06	1.54067
2.31739e+06	1.54067
2.33077e+06	1.54066
2.34423e+06	1.54066
2.35776e+06	1.54066
2.37137e+06	1.54066
2.38506e+06	1.54066
2.39883e+06	1.54066
2.41268e+06	1.54066
2.42661e+06	1.54066
2.44062e+06	1.54066
2.45471e+06	1.54066
2.46888e+06	1.54066
2.48313e+06	1.54066
2.49747e+06	1.54066
2.51189e+06	1.54066
2.52639e+06	1.54066
2.54097e+06	1.54066
2.55564e+06	1.54066
2.5704e+06	1.54066
2.58523e+06	1.54066
2.60016e+06	1.54066
2.61517e+06	1.54066
2.63027e+06	1.54066
2.64545e+06	1.54066
2.66073e+06	1.54066
2.67609e+06	1.54066
2.69153e+06	1.54066
2.70707e+06	1.54066
2.7227e+06	1.54065
2.73842e+06	1.54065
2.75423e+06	1.54065
2.77013e+06	1.54065
2.78612e+06	1.54065
2.80221e+06	1.54065
2.81838e+06	1.54065
2.83465e+06	1.54065
2.85102e+06	1.54065
2.86748e+06	1.54065
2.88403e+06	1.54065
2.90068e+06	1.54065
2.91743e+06	1.54065
2.93427e+06	1.54065
2.95121e+06	1.54065
2.96825e+06	1.54065
2.98538e+06	1.54065
3.00262e+06	1.54065
3.01995e+06	1.54065
3.03739e+06	1.54065
3.05492e+06	1.54065
3.07256e+06	1.54065
3.0903e+06	1.54065
3.10814e+06	1.54065
3.12608e+06	1.54065
3.14413e+06	1.54065
3.16228e+06	1.54065
3.18053e+06	1.54065
3.1989e+06	1.54065
3.21736e+06	1.54065
3.23594e+06	1.54065
3.25462e+06	1.54065
3.27341e+06	1.54065
3.2923e+06	1.54065
3.31131e+06	1.54064
3.33043e+06	1.54064
3.34965e+06	1.54064
3.36899e+06	1.54064
3.38844e+06	1.54064
3.408e+06	1.54064
3.42768e+06	1.54064
3.44747e+06	1.54064
3.46737e+06	1.54064
3.48739e+06	1.54064
3.50752e+06	1.54064
3.52777e+06	1.54064
3.54813e+06	1.54064
3.56862e+06	1.54064
3.58922e+06	1.54064
3.60994e+06	1.54064
3.63078e+06	1.54064
3.65174e+06	1.54064
3.67282e+06	1.54064
3.69403e+06	1.54064
3.71535e+06	1.54064
3.7368e+06	1.54064
3.75837e+06	1.54064
3.78007e+06	1.54064
3.80189e+06	1.54064
3.82384e+06	1.54064
3.84592e+06	1.54064
3.86812e+06	1.54064
3.89045e+06	1.54064
3.91291e+06	1.54064
3.9355e+06	1.54064
3.95822e+06	1.54064
3.98107e+06	1.54064
4.00405e+06	1.54064
4.02717e+06	1.54064
4.05042e+06	1.54064
4.0738e+06	1.54064
4.09732e+06	1.54064
4.12098e+06	1.54064
4.14477e+06	1.54064
4.16869e+06	1.54064
4.19276e+06	1.54064
4.21697e+06	1.54064
4.24131e+06	1.54064
4.2658e+06	1.54064
4.29042e+06	1.54064
4.31519e+06	1.54063
4.3401e+06	1.54063
4.36516e+06	1.54063
4.39036e+06	1.54063
4.4157e+06	1.54063
4.4412e+06	1.54063
4.46684e+06	1.54063
4.49262e+06	1.54063
4.51856e+06	1.54063
4.54465e+06	1.54063
4.57088e+06	1.54063
4.59727e+06	1.54063
4.62381e+06	1.54063
4.6505e+06	1.54063
4.67735e+06	1.54063
4.70435e+06	1.54063
4.73151e+06	1.54063
4.75883e+06	1.54063
4.7863e+06	1.54063
4.81393e+06	1.54063
4.84172e+06	1.54063
4.86968e+06	1.54063
4.89779e+06	1.54063
4.92606e+06	1.54063
4.9545e+06	1.54063
4.9831e+06	1.54063
5.01187e+06	1.54063
5.04081e+06	1.54063
5.06991e+06	1.54063
5.09918e+06	1.54063
5.12861e+06	1.54063
5.15822e+06	1.54063
5.188e+06	1.54063
5.21795e+06	1.54063
5.24807e+06	1.54063
5.27837e+06	1.54063
5.30884e+06	1.54063
5.33949e+06	1.54063
5.37032e+06	1.54063
5.40132e+06	1.54063
5.4325e+06	1.54063
5.46387e+06	1.54063
5.49541e+06	1.54063
5.52713e+06	1.54063
5.55904e+06	1.54063
5.59114e+06	1.54063
5.62341e+06	1.54063
5.65588e+06	1.54063
5.68853e+06	1.54063
5.72137e+06	1.54063
5.7544e+06	1.54063
5.78762e+06	1.54063
5.82103e+06	1.54063
5.85464e+06	1.54063
5.88844e+06	1.54063
5.92243e+06	1.54063
5.95662e+06	1.54063
5.99101e+06	1.54063
6.0256e+06	1.54063
6.06038e+06	1.54063
6.09537e+06	1.54063
6.13056e+06	1.54063
6.16595e+06	1.54063
6.20155e+06	1.54063
6.23735e+06	1.54063
6.27336e+06	1.54063
6.30957e+06	1.54063
6.346e+06	1.54062
6.38263e+06	1.54062
6.41948e+06	1.54062
6.45654e+06	1.54062
6.49382e+06	1.54062
6.53131e+06	1.54062
6.56901e+06	1.54062
6.60693e+06	1.54062
6.64508e+06	1.54062
6.68344e+06	1.54062
6.72202e+06	1.54062
6.76083e+06	1.54062
6.79986e+06	1.54062
6.83912e+06	1.54062
6.8786e+06	1.54062
6.91831e+06	1.54062
6.95825e+06	1.54062
6.99842e+06	1.54062
7.03882e+06	1.54062
7.07946e+06	1.54062
7.12033e+06	1.54062
7.16143e+06	1.54062
7.20278e+06	1.54062
7.24436e+06	1.54062
7.28618e+06	1.54062
7.32825e+06	1.54062
7.37055e+06	1.54062
7.4131e+06	1.54062
7.4559e+06	1.54062
7.49894e+06	1.54062
7.54223e+06	1.54062
7.58578e+06	1.54062
7.62957e+06	1.54062
7.67361e+06	1.54062
7.71792e+06	1.54062
7.76247e+06	1.54062
7.80728e+06	1.54062
7.85236e+06	1.54062
7.89769e+06	1.54062
7.94328e+06	1.54062
7.98914e+06	1.54062
8.03526e+06	1.54062
8.08165e+06	1.54062
8.12831e+06	1.54062
8.17523e+06	1.54062
8.22243e+06	1.54062
8.2699e+06	1.54062
8.31764e+06	1.54062
8.36566e+06	1.54062
8.41395e+06	1.54062
8.46253e+06	1.54062
8.51138e+06	1.54062
8.56052e+06	1.54062
8.60994e+06	1.54062
8.65964e+06	1.54062
8.70964e+06	1.54062
8.75992e+06	1.54062
8.81049e+06	1.54062
8.86135e+06	1.54062
8.91251e+06	1.54062
8.96396e+06	1.54062
9.01571e+06	1.54062
9.06776e+06	1.54062
9.12011e+06	1.54062
9.17276e+06	1.54062
9.22571e+06	1.54062
9.27897e+06	1.54062
9.33254e+06	1.54062
9.38642e+06	1.54062
9.44061e+06	1.54062
9.49511e+06	1.54062
9.54993e+06	1.54062
9.60506e+06	1.54062
9.66051e+06	1.54062
9.71628e+06	1.54062
9.77237e+06	1.54062
9.82879e+06	1.54062
9.88553e+06	1.54062
9.9426e+06	1.54062
1e+07	1.54062
