E [MeV]	dEdx [keV/microm]
0.001	30.1342
0.00100577	30.2211
0.00101158	30.3082
0.00101742	30.3955
0.00102329	30.4832
0.0010292	30.571
0.00103514	30.6591
0.00104112	30.7475
0.00104713	30.8361
0.00105317	30.925
0.00105925	31.0141
0.00106537	31.1035
0.00107152	31.1932
0.00107771	31.2831
0.00108393	31.3733
0.00109018	31.4637
0.00109648	31.5544
0.00110281	31.6453
0.00110917	31.7366
0.00111558	31.828
0.00112202	31.9198
0.0011285	32.0118
0.00113501	32.104
0.00114156	32.1966
0.00114815	32.2894
0.00115478	32.3825
0.00116145	32.4758
0.00116815	32.5694
0.0011749	32.6633
0.00118168	32.7574
0.0011885	32.8518
0.00119536	32.9465
0.00120226	33.0415
0.00120921	33.1367
0.00121619	33.2323
0.00122321	33.328
0.00123027	33.4241
0.00123737	33.5204
0.00124451	33.6171
0.0012517	33.714
0.00125893	33.8111
0.00126619	33.9086
0.0012735	34.0063
0.00128086	34.1044
0.00128825	34.2026
0.00129569	34.3012
0.00130317	34.4001
0.00131069	34.4993
0.00131826	34.5987
0.00132587	34.6984
0.00133352	34.7984
0.00134122	34.8988
0.00134896	34.9993
0.00135675	35.1002
0.00136458	35.2014
0.00137246	35.3028
0.00138038	35.4046
0.00138835	35.5067
0.00139637	35.609
0.00140443	35.7116
0.00141254	35.8146
0.00142069	35.9178
0.00142889	36.0213
0.00143714	36.1252
0.00144544	36.2293
0.00145378	36.3337
0.00146218	36.4384
0.00147062	36.5435
0.00147911	36.6488
0.00148765	36.7544
0.00149624	36.8604
0.00150487	36.9666
0.00151356	37.0732
0.0015223	37.18
0.00153109	37.2872
0.00153993	37.3947
0.00154882	37.5025
0.00155776	37.6106
0.00156675	37.719
0.0015758	37.8277
0.00158489	37.9367
0.00159404	38.0461
0.00160325	38.1557
0.0016125	38.2657
0.00162181	38.376
0.00163117	38.4866
0.00164059	38.5975
0.00165006	38.7088
0.00165959	38.8204
0.00166917	38.9323
0.0016788	39.0445
0.0016885	39.157
0.00169824	39.2699
0.00170805	39.3831
0.00171791	39.4966
0.00172783	39.6105
0.0017378	39.7246
0.00174783	39.8391
0.00175792	39.9536
0.00176807	40.0679
0.00177828	40.1827
0.00178855	40.2977
0.00179887	40.4131
0.00180926	40.5288
0.0018197	40.6448
0.00183021	40.7613
0.00184077	40.8779
0.0018514	40.995
0.00186209	41.1124
0.00187284	41.2301
0.00188365	41.3482
0.00189452	41.4666
0.00190546	41.5853
0.00191646	41.7044
0.00192752	41.8238
0.00193865	41.9436
0.00194984	42.0637
0.0019611	42.1842
0.00197242	42.305
0.00198381	42.4262
0.00199526	42.5477
0.00200678	42.6696
0.00201837	42.7918
0.00203002	42.9143
0.00204174	43.0372
0.00205353	43.1605
0.00206538	43.2842
0.0020773	43.4081
0.0020893	43.5324
0.00210136	43.6572
0.00211349	43.7822
0.00212569	43.9077
0.00213796	44.0334
0.0021503	44.1596
0.00216272	44.2861
0.0021752	44.4129
0.00218776	44.5402
0.00220039	44.6678
0.00221309	44.7958
0.00222587	44.9241
0.00223872	45.0528
0.00225165	45.1819
0.00226464	45.3103
0.00227772	45.4391
0.00229087	45.5682
0.00230409	45.6977
0.00231739	45.8276
0.00233077	45.9578
0.00234423	46.0885
0.00235776	46.2195
0.00237137	46.3509
0.00238506	46.4826
0.00239883	46.6148
0.00241268	46.7473
0.00242661	46.8803
0.00244062	47.0135
0.00245471	47.1472
0.00246888	47.2813
0.00248313	47.4157
0.00249747	47.5505
0.00251189	47.6857
0.00252639	47.8214
0.00254097	47.9573
0.00255564	48.0937
0.0025704	48.2306
0.00258523	48.3677
0.00260016	48.5053
0.00261517	48.6433
0.00263027	48.7817
0.00264545	48.9205
0.00266073	49.0597
0.00267609	49.1992
0.00269153	49.3392
0.00270707	49.4796
0.0027227	49.6204
0.00273842	49.7616
0.00275423	49.9029
0.00277013	50.0435
0.00278612	50.1846
0.00280221	50.3261
0.00281838	50.4679
0.00283465	50.6103
0.00285102	50.753
0.00286748	50.8961
0.00288403	51.0396
0.00290068	51.1835
0.00291743	51.3279
0.00293427	51.4727
0.00295121	51.6179
0.00296825	51.7635
0.00298538	51.9095
0.00300262	52.056
0.00301995	52.2029
0.00303739	52.3502
0.00305492	52.4979
0.00307256	52.6461
0.0030903	52.7947
0.00310814	52.9437
0.00312608	53.0931
0.00314413	53.243
0.00316228	53.3933
0.00318053	53.5441
0.0031989	53.6952
0.00321736	53.8468
0.00323594	53.9989
0.00325462	54.1514
0.00327341	54.3043
0.0032923	54.4577
0.00331131	54.6115
0.00333043	54.7658
0.00334965	54.9205
0.00336899	55.0757
0.00338844	55.2313
0.003408	55.3873
0.00342768	55.5438
0.00344747	55.7008
0.00346737	55.8582
0.00348739	56.0161
0.00350752	56.1744
0.00352777	56.3332
0.00354813	56.4925
0.00356862	56.6522
0.00358922	56.8123
0.00360994	56.973
0.00363078	57.1341
0.00365174	57.2956
0.00367282	57.4576
0.00369403	57.6201
0.00371535	57.7831
0.0037368	57.9465
0.00375837	58.1105
0.00378007	58.2748
0.00380189	58.4397
0.00382384	58.605
0.00384592	58.7709
0.00386812	58.9372
0.00389045	59.104
0.00391291	59.2712
0.0039355	59.439
0.00395822	59.6072
0.00398107	59.7759
0.00400405	59.9451
0.00402717	60.1148
0.00405042	60.2851
0.0040738	60.4558
0.00409732	60.6269
0.00412098	60.7986
0.00414477	60.9708
0.00416869	61.1435
0.00419276	61.3166
0.00421697	61.4903
0.00424131	61.6645
0.0042658	61.8392
0.00429042	62.0144
0.00431519	62.1901
0.0043401	62.3663
0.00436516	62.543
0.00439036	62.7203
0.0044157	62.898
0.0044412	63.0763
0.00446684	63.2551
0.00449262	63.4344
0.00451856	63.6142
0.00454465	63.7946
0.00457088	63.9754
0.00459727	64.1568
0.00462381	64.3387
0.0046505	64.5212
0.00467735	64.7041
0.00470435	64.8877
0.00473151	65.0717
0.00475883	65.2563
0.0047863	65.4414
0.00481393	65.6271
0.00484172	65.8133
0.00486968	66
0.00489779	66.1873
0.00492606	66.3751
0.0049545	66.5634
0.0049831	66.7524
0.00501187	66.9418
0.00504081	67.1318
0.00506991	67.3224
0.00509918	67.5135
0.00512861	67.7052
0.00515822	67.8974
0.005188	68.0902
0.00521795	68.2836
0.00524807	68.4775
0.00527837	68.6719
0.00530884	68.867
0.00533949	69.0626
0.00537032	69.2588
0.00540132	69.4556
0.0054325	69.6529
0.00546387	69.8508
0.00549541	70.0493
0.00552713	70.2483
0.00555904	70.4479
0.00559114	70.6482
0.00562341	70.8489
0.00565588	71.0503
0.00568853	71.2523
0.00572137	71.4548
0.0057544	71.658
0.00578762	71.8617
0.00582103	72.066
0.00585464	72.271
0.00588844	72.4764
0.00592243	72.6826
0.00595662	72.8893
0.00599101	73.0966
0.0060256	73.3046
0.00606038	73.5131
0.00609537	73.7222
0.00613056	73.932
0.00616595	74.1423
0.00620155	74.3533
0.00623735	74.5649
0.00627336	74.7771
0.00630957	74.9899
0.006346	75.2033
0.00638263	75.4174
0.00641948	75.6321
0.00645654	75.8474
0.00649382	76.0633
0.00653131	76.2799
0.00656901	76.4971
0.00660693	76.715
0.00664508	76.9334
0.00668344	77.1525
0.00672202	77.3723
0.00676083	77.5927
0.00679986	77.8137
0.00683912	78.0354
0.0068786	78.2577
0.00691831	78.4807
0.00695825	78.7043
0.00699842	78.9286
0.00703882	79.1243
0.00707946	79.3016
0.00712033	79.4795
0.00716143	79.6581
0.00720278	79.8373
0.00724436	80.0171
0.00728618	80.1975
0.00732825	80.3786
0.00737055	80.5603
0.0074131	80.7426
0.0074559	80.9256
0.00749894	81.1091
0.00754223	81.2934
0.00758578	81.4782
0.00762957	81.6637
0.00767361	81.8497
0.00771792	82.0364
0.00776247	82.2238
0.00780728	82.4117
0.00785236	82.6003
0.00789769	82.7895
0.00794328	82.9793
0.00798914	83.1698
0.00803526	83.3609
0.00808165	83.5525
0.00812831	83.7449
0.00817523	83.9379
0.00822243	84.1314
0.0082699	84.3256
0.00831764	84.5204
0.00836566	84.7159
0.00841395	84.9119
0.00846253	85.1086
0.00851138	85.3059
0.00856052	85.5039
0.00860994	85.7027
0.00865964	85.9017
0.00870964	86.1018
0.00875992	86.3022
0.00881049	86.5033
0.00886135	86.7051
0.00891251	86.9072
0.00896396	87.1103
0.00901571	87.3066
0.00906776	87.445
0.00912011	87.5838
0.00917276	87.7232
0.00922571	87.8632
0.00927897	88.0036
0.00933254	88.1449
0.00938642	88.2865
0.00944061	88.4291
0.00949511	88.5719
0.00954993	88.7153
0.00960506	88.8594
0.00966051	89.0041
0.00971628	89.1494
0.00977237	89.2953
0.00982879	89.4414
0.00988553	89.5885
0.0099426	89.7359
0.01	89.8838
0.0100577	90.0327
0.0101158	90.1818
0.0101742	90.3315
0.0102329	90.4817
0.010292	90.6326
0.0103514	90.7837
0.0104112	90.9357
0.0104713	91.0883
0.0105317	91.2411
0.0105925	91.3948
0.0106537	91.5488
0.0107152	91.7036
0.0107771	91.8587
0.0108393	92.0143
0.0109018	92.1705
0.0109648	92.3276
0.0110281	92.4565
0.0110917	92.5304
0.0111558	92.6051
0.0112202	92.6804
0.011285	92.7559
0.0113501	92.8319
0.0114156	92.9085
0.0114815	92.9856
0.0115478	93.0629
0.0116145	93.1408
0.0116815	93.2192
0.011749	93.2981
0.0118168	93.3773
0.011885	93.4569
0.0119536	93.5372
0.0120226	93.6176
0.0120921	93.6989
0.0121619	93.78
0.0122321	93.862
0.0123027	93.9442
0.0123737	94.0269
0.0124451	94.1098
0.012517	94.1932
0.0125893	94.2772
0.0126619	94.3613
0.012735	94.446
0.0128086	94.5312
0.0128825	94.6166
0.0129569	94.7022
0.0130317	94.7886
0.0131069	94.8749
0.0131826	94.962
0.0132587	95.0493
0.0133352	95.1368
0.0134122	95.2248
0.0134896	95.3134
0.0135675	95.4021
0.0136458	95.4913
0.0137246	95.5808
0.0138038	95.6707
0.0138835	95.7608
0.0139637	95.8515
0.0140443	95.9423
0.0141254	96.0336
0.0142069	96.1251
0.0142889	96.2172
0.0143714	96.3094
0.0144544	96.4021
0.0145378	96.4951
0.0146218	96.5885
0.0147062	96.6821
0.0147911	96.7759
0.0148765	96.8702
0.0149624	96.9651
0.0150487	97.0601
0.0151356	97.1553
0.015223	97.251
0.0153109	97.3473
0.0153993	97.4433
0.0154882	97.5403
0.0155776	97.6371
0.0156675	97.7344
0.015758	97.8322
0.0158489	97.9303
0.0159404	98.0284
0.0160325	98.1272
0.016125	98.2261
0.0162181	98.3255
0.0163117	98.4251
0.0164059	98.525
0.0165006	98.6253
0.0165959	98.7258
0.0166917	98.8269
0.016788	98.9281
0.016885	99.0299
0.0169824	99.1315
0.0170805	99.234
0.0171791	99.3364
0.0172783	99.4396
0.017378	99.5427
0.0174783	99.6463
0.0175792	99.7502
0.0176807	99.8545
0.0177828	99.9589
0.0178855	100.064
0.0179887	100.169
0.0180926	100.275
0.018197	100.38
0.0183021	100.487
0.0184077	100.594
0.018514	100.7
0.0186209	100.807
0.0187284	100.915
0.0188365	101.023
0.0189452	101.131
0.0190546	101.24
0.0191646	101.348
0.0192752	101.458
0.0193865	101.568
0.0194984	101.678
0.019611	101.788
0.0197242	101.899
0.0198381	102.01
0.0199526	102.121
0.0200678	102.232
0.0201837	102.345
0.0203002	102.457
0.0204174	102.57
0.0205353	102.683
0.0206538	102.796
0.020773	102.91
0.020893	103.024
0.0210136	103.139
0.0211349	103.254
0.0212569	103.369
0.0213796	103.485
0.021503	103.601
0.0216272	103.717
0.021752	103.834
0.0218776	103.951
0.0220039	104.069
0.0221309	104.187
0.0222587	104.304
0.0223872	104.423
0.0225165	104.542
0.0226464	104.662
0.0227772	104.782
0.0229087	104.901
0.0230409	105.022
0.0231739	105.143
0.0233077	105.264
0.0234423	105.386
0.0235776	105.508
0.0237137	105.63
0.0238506	105.754
0.0239883	105.877
0.0241268	106.001
0.0242661	106.125
0.0244062	106.25
0.0245471	106.374
0.0246888	106.5
0.0248313	106.626
0.0249747	106.752
0.0251189	106.878
0.0252639	107.005
0.0254097	107.133
0.0255564	107.261
0.025704	107.389
0.0258523	107.518
0.0260016	107.647
0.0261517	107.777
0.0263027	107.907
0.0264545	108.038
0.0266073	108.169
0.0267609	108.3
0.0269153	108.432
0.0270707	108.564
0.027227	108.697
0.0273842	108.83
0.0275423	108.964
0.0277013	109.098
0.0278612	109.233
0.0280221	109.367
0.0281838	109.503
0.0283465	109.639
0.0285102	109.776
0.0286748	109.912
0.0288403	110.05
0.0290068	110.188
0.0291743	110.326
0.0293427	110.465
0.0295121	110.604
0.0296825	110.745
0.0298538	110.885
0.0300262	111.026
0.0301995	111.167
0.0303739	111.309
0.0305492	111.451
0.0307256	111.594
0.030903	111.737
0.0310814	111.881
0.0312608	112.025
0.0314413	112.17
0.0316228	112.316
0.0318053	112.461
0.031989	112.608
0.0321736	112.755
0.0323594	112.903
0.0325462	113.051
0.0327341	113.2
0.032923	113.349
0.0331131	113.498
0.0333043	113.649
0.0334965	113.799
0.0336899	113.951
0.0338844	114.102
0.03408	114.255
0.0342768	114.408
0.0344747	114.561
0.0346737	114.715
0.0348739	114.87
0.0350752	115.025
0.0352777	115.181
0.0354813	115.337
0.0356862	115.494
0.0358922	115.652
0.0360994	115.81
0.0363078	115.969
0.0365174	116.128
0.0367282	116.288
0.0369403	116.448
0.0371535	116.609
0.037368	116.771
0.0375837	116.933
0.0378007	117.096
0.0380189	117.26
0.0382384	117.423
0.0384592	117.588
0.0386812	117.754
0.0389045	117.919
0.0391291	118.086
0.039355	118.253
0.0395822	118.421
0.0398107	118.589
0.0400405	118.759
0.0402717	118.928
0.0405042	119.098
0.040738	119.27
0.0409732	119.441
0.0412098	119.613
0.0414477	119.786
0.0416869	119.96
0.0419276	120.134
0.0421697	120.309
0.0424131	120.484
0.042658	120.661
0.0429042	120.837
0.0431519	121.015
0.043401	121.193
0.0436516	121.372
0.0439036	121.552
0.044157	121.732
0.044412	121.913
0.0446684	122.094
0.0449262	122.277
0.0451856	122.46
0.0454465	122.643
0.0457088	122.828
0.0459727	123.013
0.0462381	123.199
0.046505	123.385
0.0467735	123.572
0.0470435	123.76
0.0473151	123.949
0.0475883	124.138
0.047863	124.328
0.0481393	124.519
0.0484172	124.71
0.0486968	124.903
0.0489779	125.096
0.0492606	125.289
0.049545	125.484
0.049831	125.679
0.0501187	125.875
0.0504081	126.072
0.0506991	126.269
0.0509918	126.467
0.0512861	126.666
0.0515822	126.866
0.05188	127.066
0.0521795	127.267
0.0524807	127.469
0.0527837	127.672
0.0530884	127.875
0.0533949	128.079
0.0537032	128.285
0.0540132	128.491
0.054325	128.697
0.0546387	128.905
0.0549541	129.113
0.0552713	129.322
0.0555904	129.531
0.0559114	129.742
0.0562341	129.953
0.0565588	130.166
0.0568853	130.378
0.0572137	130.592
0.057544	130.806
0.0578762	131.022
0.0582103	131.238
0.0585464	131.455
0.0588844	131.673
0.0592243	131.891
0.0595662	132.111
0.0599101	132.331
0.060256	132.552
0.0606038	132.774
0.0609537	132.997
0.0613056	133.22
0.0616595	133.445
0.0620155	133.67
0.0623735	133.896
0.0627336	134.123
0.0630957	134.351
0.06346	134.579
0.0638263	134.809
0.0641948	135.04
0.0645654	135.271
0.0649382	135.503
0.0653131	135.736
0.0656901	135.969
0.0660693	136.204
0.0664508	136.439
0.0668344	136.676
0.0672202	136.913
0.0676083	137.151
0.0679986	137.391
0.0683912	137.631
0.068786	137.872
0.0691831	138.113
0.0695825	138.356
0.0699842	138.599
0.0703882	138.844
0.0707946	139.089
0.0712033	139.335
0.0716143	139.582
0.0720278	139.83
0.0724436	140.079
0.0728618	140.329
0.0732825	140.58
0.0737055	140.831
0.074131	141.084
0.074559	141.337
0.0749894	141.592
0.0754223	141.847
0.0758578	142.103
0.0762957	142.36
0.0767361	142.619
0.0771792	142.878
0.0776247	143.138
0.0780728	143.398
0.0785236	143.66
0.0789769	143.923
0.0794328	144.187
0.0798914	144.451
0.0803526	144.717
0.0808165	144.983
0.0812831	145.251
0.0817523	145.519
0.0822243	145.789
0.082699	146.059
0.0831764	146.331
0.0836566	146.603
0.0841395	146.876
0.0846253	147.15
0.0851138	147.425
0.0856052	147.702
0.0860994	147.979
0.0865964	148.257
0.0870964	148.536
0.0875992	148.816
0.0881049	149.097
0.0886135	149.379
0.0891251	149.661
0.0896396	149.946
0.0901571	150.231
0.0906776	150.516
0.0912011	150.803
0.0917276	151.091
0.0922571	151.38
0.0927897	151.67
0.0933254	151.961
0.0938642	152.253
0.0944061	152.545
0.0949511	152.839
0.0954993	153.134
0.0960506	153.43
0.0966051	153.727
0.0971628	154.025
0.0977237	154.323
0.0982879	154.623
0.0988553	154.924
0.099426	155.226
0.1	155.529
0.100577	155.833
0.101158	156.137
0.101742	156.443
0.102329	156.75
0.10292	157.058
0.103514	157.367
0.104112	157.677
0.104713	157.988
0.105317	158.3
0.105925	158.613
0.106537	158.927
0.107152	159.242
0.107771	159.558
0.108393	159.875
0.109018	160.193
0.109648	160.512
0.110281	160.833
0.110917	161.154
0.111558	161.476
0.112202	161.799
0.11285	162.123
0.113501	162.449
0.114156	162.775
0.114815	163.102
0.115478	163.431
0.116145	163.76
0.116815	164.09
0.11749	164.422
0.118168	164.754
0.11885	165.088
0.119536	165.437
0.120226	165.823
0.120921	166.211
0.121619	166.601
0.122321	166.992
0.123027	167.384
0.123737	167.779
0.124451	168.175
0.12517	168.573
0.125893	168.972
0.126619	169.395
0.12735	169.855
0.128086	170.317
0.128825	170.78
0.129569	171.247
0.130317	171.716
0.131069	172.187
0.131826	172.661
0.132587	173.136
0.133352	173.615
0.134122	174.096
0.134896	174.579
0.135675	175.064
0.136458	175.553
0.137246	176.043
0.138038	176.536
0.138835	177.031
0.139637	177.53
0.140443	178.03
0.141254	178.533
0.142069	179.04
0.142889	179.547
0.143714	180.059
0.144544	180.572
0.145378	181.157
0.146218	181.747
0.147062	182.34
0.147911	182.936
0.148765	183.536
0.149624	184.14
0.150487	184.747
0.151356	185.357
0.15223	185.971
0.153109	186.589
0.153993	187.211
0.154882	187.835
0.155776	188.464
0.156675	189.096
0.15758	189.733
0.158489	190.373
0.159404	191.016
0.160325	191.664
0.16125	192.315
0.162181	192.97
0.163117	193.63
0.164059	194.293
0.165006	194.959
0.165959	195.63
0.166917	196.305
0.16788	196.984
0.16885	197.667
0.169824	198.354
0.170805	199.045
0.171791	199.741
0.172783	200.44
0.17378	201.144
0.174783	201.852
0.175792	202.564
0.176807	203.265
0.177828	203.958
0.178855	204.656
0.179887	205.357
0.180926	206.062
0.18197	206.771
0.183021	207.483
0.184077	208.2
0.18514	208.921
0.186209	209.646
0.187284	210.374
0.188365	211.107
0.189452	211.843
0.190546	212.585
0.191646	213.33
0.192752	214.079
0.193865	214.832
0.194984	215.59
0.19611	216.351
0.197242	217.117
0.198381	217.887
0.199526	218.662
0.200678	219.441
0.201837	220.223
0.203002	221.011
0.204174	221.803
0.205353	222.599
0.206538	223.4
0.20773	224.205
0.20893	225.015
0.210136	225.828
0.211349	226.647
0.212569	227.47
0.213796	228.298
0.21503	229.131
0.216272	229.967
0.21752	230.809
0.218776	231.656
0.220039	232.507
0.221309	233.363
0.222587	234.223
0.223872	235.088
0.225165	235.959
0.226464	236.831
0.227772	237.67
0.229087	238.513
0.230409	239.36
0.231739	240.212
0.233077	241.067
0.234423	241.927
0.235776	242.791
0.237137	243.659
0.238506	244.532
0.239883	245.409
0.241268	246.289
0.242661	247.175
0.244062	248.065
0.245471	248.959
0.246888	249.857
0.248313	250.76
0.249747	251.667
0.251189	252.579
0.252639	253.495
0.254097	254.415
0.255564	255.34
0.25704	256.27
0.258523	257.203
0.260016	258.142
0.261517	259.084
0.263027	260.032
0.264545	260.984
0.266073	261.94
0.267609	262.901
0.269153	263.867
0.270707	264.837
0.27227	265.812
0.273842	266.792
0.275423	267.776
0.277013	268.748
0.278612	269.686
0.280221	270.626
0.281838	271.571
0.283465	272.519
0.285102	273.47
0.286748	274.426
0.288403	275.385
0.290068	276.347
0.291743	277.314
0.293427	278.283
0.295121	279.257
0.296825	280.234
0.298538	281.215
0.300262	282.199
0.301995	283.187
0.303739	284.179
0.305492	285.174
0.307256	286.172
0.30903	287.175
0.310814	288.181
0.312608	289.19
0.314413	290.204
0.316228	291.22
0.318053	292.24
0.31989	293.264
0.321736	294.291
0.323594	295.322
0.325462	296.357
0.327341	297.395
0.32923	298.436
0.331131	299.481
0.333043	300.53
0.334965	301.582
0.336899	302.637
0.338844	303.696
0.3408	304.758
0.342768	305.824
0.344747	306.893
0.346737	307.966
0.348739	309.042
0.350752	310.121
0.352777	311.204
0.354813	312.291
0.356862	313.38
0.358922	314.473
0.360994	315.569
0.363078	316.669
0.365174	317.772
0.367282	318.878
0.369403	319.987
0.371535	321.1
0.37368	322.216
0.375837	323.335
0.378007	324.457
0.380189	325.582
0.382384	326.711
0.384592	327.843
0.386812	328.977
0.389045	330.115
0.391291	331.256
0.39355	332.4
0.395822	333.547
0.398107	334.698
0.400405	335.851
0.402717	337.007
0.405042	338.166
0.40738	339.328
0.409732	340.492
0.412098	341.66
0.414477	342.831
0.416869	344.004
0.419276	345.18
0.421697	346.359
0.424131	347.54
0.42658	348.725
0.429042	349.912
0.431519	351.102
0.43401	352.294
0.436516	353.489
0.439036	354.686
0.44157	355.886
0.44412	357.088
0.446684	358.293
0.449262	359.501
0.451856	360.711
0.454465	361.923
0.457088	363.137
0.459727	364.354
0.462381	365.573
0.46505	366.794
0.467735	368.018
0.470435	369.243
0.473151	370.471
0.475883	371.701
0.47863	372.933
0.481393	374.167
0.484172	375.403
0.486968	376.641
0.489779	377.88
0.492606	379.122
0.49545	380.365
0.49831	381.611
0.501187	382.858
0.504081	384.106
0.506991	385.356
0.509918	386.608
0.512861	387.861
0.515822	389.116
0.5188	390.372
0.521795	391.63
0.524807	392.889
0.527837	394.15
0.530884	395.411
0.533949	396.674
0.537032	397.938
0.540132	399.203
0.54325	400.469
0.546387	401.737
0.549541	403.005
0.552713	404.274
0.555904	405.544
0.559114	406.815
0.562341	408.086
0.565588	409.359
0.568853	410.632
0.572137	411.905
0.57544	413.179
0.578762	414.454
0.582103	415.729
0.585464	417.004
0.588844	418.28
0.592243	419.556
0.595662	420.832
0.599101	422.108
0.60256	423.385
0.606038	424.661
0.609537	425.937
0.613056	427.213
0.616595	428.489
0.620155	429.765
0.623735	431.041
0.627336	432.316
0.630957	433.591
0.6346	434.865
0.638263	436.139
0.641948	437.412
0.645654	438.684
0.649382	439.956
0.653131	441.227
0.656901	442.497
0.660693	443.765
0.664508	445.034
0.668344	446.301
0.672202	447.566
0.676083	448.831
0.679986	450.094
0.683912	451.356
0.68786	452.617
0.691831	453.875
0.695825	455.133
0.699842	456.389
0.703882	457.643
0.707946	458.895
0.712033	460.145
0.716143	461.394
0.720278	462.64
0.724436	463.884
0.728618	465.127
0.732825	466.367
0.737055	467.604
0.74131	468.84
0.74559	470.072
0.749894	471.302
0.754223	472.53
0.758578	473.755
0.762957	474.977
0.767361	476.196
0.771792	477.413
0.776247	478.626
0.780728	479.836
0.785236	481.044
0.789769	482.248
0.794328	483.448
0.798914	484.645
0.803526	485.839
0.808165	487.029
0.812831	488.216
0.817523	489.399
0.822243	490.578
0.82699	491.753
0.831764	492.924
0.836566	494.091
0.841395	495.254
0.846253	496.413
0.851138	497.568
0.856052	498.718
0.860994	499.864
0.865964	501.005
0.870964	502.142
0.875992	503.274
0.881049	504.401
0.886135	505.523
0.891251	506.641
0.896396	507.754
0.901571	508.861
0.906776	509.963
0.912011	511.06
0.917276	512.152
0.922571	513.238
0.927897	514.319
0.933254	515.394
0.938642	516.463
0.944061	517.527
0.949511	518.585
0.954993	519.637
0.960506	520.684
0.966051	521.723
0.971628	522.758
0.977237	523.785
0.982879	524.807
0.988553	525.822
0.99426	526.831
1	527.833
1.00577	528.828
1.01158	529.817
1.01742	530.799
1.02329	531.774
1.0292	532.743
1.03514	533.704
1.04112	534.659
1.04713	535.606
1.05317	536.546
1.05925	537.479
1.06537	538.404
1.07152	539.322
1.07771	540.232
1.08393	541.135
1.09018	542.03
1.09648	542.918
1.10281	543.797
1.10917	544.67
1.11558	545.533
1.12202	546.389
1.1285	547.237
1.13501	548.077
1.14156	548.908
1.14815	549.731
1.15478	550.546
1.16145	551.352
1.16815	552.15
1.1749	552.939
1.18168	553.72
1.1885	554.492
1.19536	555.256
1.20226	556.01
1.20921	556.756
1.21619	557.492
1.22321	558.22
1.23027	558.939
1.23737	559.649
1.24451	560.349
1.2517	561.04
1.25893	561.723
1.26619	562.395
1.2735	563.059
1.28086	563.712
1.28825	564.357
1.29569	564.991
1.30317	565.617
1.31069	566.233
1.31826	566.838
1.32587	567.434
1.33352	568.021
1.34122	568.597
1.34896	569.164
1.35675	569.721
1.36458	570.267
1.37246	570.804
1.38038	571.217
1.38835	571.736
1.39637	572.244
1.40443	572.743
1.41254	573.231
1.42069	573.709
1.42889	574.176
1.43714	574.633
1.44544	575.08
1.45378	575.517
1.46218	575.942
1.47062	576.358
1.47911	576.763
1.48765	577.158
1.49624	577.542
1.50487	577.915
1.51356	578.278
1.5223	578.63
1.53109	578.971
1.53993	579.302
1.54882	579.622
1.55776	579.931
1.56675	580.23
1.5758	580.518
1.58489	580.795
1.59404	581.061
1.60325	581.317
1.6125	581.562
1.62181	581.796
1.63117	582.018
1.64059	582.23
1.65006	582.432
1.65959	582.622
1.66917	582.802
1.6788	582.971
1.6885	583.129
1.69824	583.276
1.70805	583.412
1.71791	583.538
1.72783	583.652
1.7378	583.756
1.74783	583.849
1.75792	583.931
1.76807	584.002
1.77828	584.062
1.78855	584.111
1.79887	584.149
1.80926	584.177
1.8197	584.194
1.83021	584.201
1.84077	584.196
1.8514	584.18
1.86209	584.154
1.87284	584.118
1.88365	584.07
1.89452	584.012
1.90546	583.943
1.91646	583.863
1.92752	583.773
1.93865	583.673
1.94984	583.561
1.9611	583.439
1.97242	583.307
1.98381	583.164
1.99526	583.011
2.00678	582.847
2.01837	582.673
2.03002	582.488
2.04174	582.294
2.05353	582.088
2.06538	581.873
2.0773	581.647
2.0893	581.411
2.10136	580.963
2.11349	580.71
2.12569	580.448
2.13796	580.175
2.1503	579.892
2.16272	579.6
2.1752	579.297
2.18776	578.984
2.20039	578.662
2.21309	578.33
2.22587	577.987
2.23872	577.636
2.25165	577.274
2.26464	576.903
2.27772	576.522
2.29087	576.132
2.30409	575.733
2.31739	575.324
2.33077	574.906
2.34423	574.478
2.35776	574.041
2.37137	573.595
2.38506	573.14
2.39883	572.676
2.41268	572.203
2.42661	571.72
2.44062	571.23
2.45471	570.73
2.46888	570.221
2.48313	569.703
2.49747	569.178
2.51189	568.643
2.52639	568.1
2.54097	567.549
2.55564	566.989
2.5704	566.421
2.58523	565.845
2.60016	565.26
2.61517	564.667
2.63027	564.067
2.64545	563.458
2.66073	562.841
2.67609	562.217
2.69153	561.585
2.70707	560.945
2.7227	560.297
2.73842	559.642
2.75423	558.98
2.77013	558.31
2.78612	557.633
2.80221	556.948
2.81838	556.257
2.83465	555.558
2.85102	554.852
2.86748	553.822
2.88403	553.108
2.90068	552.386
2.91743	551.658
2.93427	550.923
2.95121	550.182
2.96825	549.434
2.98538	548.679
3.00262	547.918
3.01995	547.151
3.03739	546.377
3.05492	545.598
3.07256	544.812
3.0903	544.02
3.10814	543.221
3.12608	542.417
3.14413	541.608
3.16228	540.792
3.18053	539.971
3.1989	539.145
3.21736	538.312
3.23594	537.474
3.25462	536.631
3.27341	535.783
3.2923	534.929
3.31131	534.071
3.33043	533.207
3.34965	532.338
3.36899	531.465
3.38844	530.586
3.408	529.703
3.42768	528.815
3.44747	527.922
3.46737	527.026
3.48739	526.124
3.50752	525.218
3.52777	524.308
3.54813	523.394
3.56862	522.475
3.58922	521.553
3.60994	520.626
3.63078	519.696
3.65174	518.762
3.67282	517.824
3.69403	516.882
3.71535	515.936
3.7368	514.987
3.75837	514.035
3.78007	513.079
3.80189	512.12
3.82384	511.157
3.84592	510.192
3.86812	509.223
3.89045	508.251
3.91291	507.276
3.9355	506.299
3.95822	505.318
3.98107	504.334
4.00405	503.348
4.02717	502.359
4.05042	501.368
4.0738	500.374
4.09732	499.378
4.12098	498.379
4.14477	497.378
4.16869	496.374
4.19276	495.369
4.21697	494.362
4.24131	493.351
4.2658	492.34
4.29042	491.327
4.31519	490.311
4.3401	489.294
4.36516	488.274
4.39036	487.254
4.4157	486.231
4.4412	485.208
4.46684	484.182
4.49262	483.155
4.51856	482.127
4.54465	481.097
4.57088	480.066
4.59727	479.034
4.62381	478
4.6505	476.966
4.67735	475.93
4.70435	474.894
4.73151	473.856
4.75883	472.818
4.7863	471.778
4.81393	470.738
4.84172	469.697
4.86968	468.655
4.89779	467.613
4.92606	466.57
4.9545	465.526
4.9831	464.482
5.01187	463.438
5.04081	462.393
5.06991	461.347
5.09918	460.302
5.12861	459.256
5.15822	458.209
5.188	457.163
5.21795	456.116
5.24807	455.07
5.27837	454.023
5.30884	452.976
5.33949	451.929
5.37032	450.882
5.40132	449.836
5.4325	448.789
5.46387	447.742
5.49541	446.696
5.52713	445.65
5.55904	444.604
5.59114	443.558
5.62341	442.513
5.65588	441.468
5.68853	440.424
5.72137	439.379
5.7544	438.336
5.78762	437.293
5.82103	436.25
5.85464	435.207
5.88844	434.166
5.92243	433.125
5.95662	432.085
5.99101	431.045
6.0256	430.006
6.06038	428.968
6.09537	427.93
6.13056	426.893
6.16595	425.857
6.20155	424.822
6.23735	423.788
6.27336	422.754
6.30957	421.721
6.346	420.689
6.38263	419.659
6.41948	418.628
6.45654	417.6
6.49382	416.572
6.53131	415.545
6.56901	414.519
6.60693	413.494
6.64508	412.47
6.68344	411.447
6.72202	410.425
6.76083	409.405
6.79986	408.385
6.83912	407.367
6.8786	406.349
6.91831	405.333
6.95825	404.318
6.99842	403.305
7.03882	402.292
7.07946	401.281
7.12033	400.27
7.16143	399.262
7.20278	398.254
7.24436	397.247
7.28618	396.242
7.32825	395.238
7.37055	394.236
7.4131	393.235
7.4559	392.235
7.49894	391.236
7.54223	390.239
7.58578	389.243
7.62957	388.248
7.67361	387.255
7.71792	386.263
7.76247	385.272
7.80728	384.283
7.85236	383.295
7.89769	382.309
7.94328	381.324
7.98914	380.34
8.03526	379.357
8.08165	378.376
8.12831	377.397
8.17523	376.419
8.22243	375.442
8.2699	374.467
8.31764	373.493
8.36566	372.52
8.41395	371.549
8.46253	370.579
8.51138	369.611
8.56052	368.644
8.60994	367.678
8.65964	366.714
8.70964	365.752
8.75992	364.791
8.81049	363.831
8.86135	362.872
8.91251	361.919
8.96396	360.963
9.01571	360.008
9.06776	359.056
9.12011	358.104
9.17276	357.154
9.22571	356.205
9.27897	355.258
9.33254	354.312
9.38642	353.368
9.44061	352.425
9.49511	351.483
9.54993	350.543
9.60506	349.605
9.66051	348.668
9.71628	347.732
9.77237	346.797
9.82879	345.864
9.88553	344.932
9.9426	344.002
10	343.073
10.0577	342.146
10.1158	341.219
10.1742	340.295
10.2329	339.371
10.292	338.45
10.3514	337.529
10.4112	336.61
10.4713	335.692
10.5317	334.775
10.5925	333.86
10.6537	332.947
10.7152	332.034
10.7771	331.123
10.8393	330.214
10.9018	329.305
10.9648	328.398
11.0281	327.492
11.0917	326.588
11.1558	325.685
11.2202	324.783
11.285	323.883
11.3501	322.984
11.4156	322.086
11.4815	321.192
11.5478	320.297
11.6145	319.403
11.6815	318.51
11.749	317.619
11.8168	316.728
11.885	315.839
11.9536	314.952
12.0226	314.066
12.0921	313.181
12.1619	312.297
12.2321	311.415
12.3027	310.534
12.3737	309.654
12.4451	308.775
12.517	307.898
12.5893	307.022
12.6619	306.147
12.735	305.274
12.8086	304.402
12.8825	303.53
12.9569	302.661
13.0317	301.792
13.1069	300.925
13.1826	300.059
13.2587	299.195
13.3352	298.331
13.4122	297.468
13.4896	296.608
13.5675	295.748
13.6458	294.889
13.7246	294.032
13.8038	293.176
13.8835	292.32
13.9637	291.467
14.0443	290.609
14.1254	289.752
14.2069	288.897
14.2889	288.042
14.3714	287.188
14.4544	286.336
14.5378	285.488
14.6218	284.637
14.7062	283.788
14.7911	282.941
14.8765	282.094
14.9624	281.248
15.0487	280.404
15.1356	279.56
15.223	278.718
15.3109	277.877
15.3993	277.037
15.4882	276.198
15.5776	275.366
15.6675	274.53
15.758	273.696
15.8489	272.861
15.9404	272.028
16.0325	271.196
16.125	270.365
16.2181	269.535
16.3117	268.707
16.4059	267.879
16.5006	267.053
16.5959	266.228
16.6917	265.404
16.788	264.58
16.885	263.759
16.9824	262.939
17.0805	262.144
17.1791	261.325
17.2783	260.508
17.378	259.692
17.4783	258.794
17.5792	257.979
17.6807	257.172
17.7828	256.36
17.8855	255.549
17.9887	254.732
18.0926	253.915
18.197	253.1
18.3021	252.286
18.4077	251.473
18.514	250.661
18.6209	249.855
18.7284	249.045
18.8365	248.236
18.9452	247.428
19.0546	246.622
19.1646	245.816
19.2752	245.011
19.3865	244.208
19.4984	243.406
19.611	242.605
19.7242	241.805
19.8381	241.006
19.9526	240.218
20.0678	239.421
20.1837	238.629
20.3002	237.834
20.4174	237.041
20.5353	236.249
20.6538	235.458
20.773	234.692
20.893	233.903
21.0136	233.116
21.1349	232.33
21.2569	231.545
21.3796	230.761
21.503	229.979
21.6272	229.198
21.752	228.418
21.8776	227.678
22.0039	226.889
22.1309	226.102
22.2587	225.316
22.3872	224.53
22.5165	223.604
22.6464	222.832
22.7772	222.055
22.9087	221.272
23.0409	220.49
23.1739	219.709
23.3077	218.93
23.4423	218.152
23.5776	217.376
23.7137	216.6
23.8506	215.826
23.9883	215.052
24.1268	214.28
24.2661	213.509
24.4062	212.754
24.5471	211.988
24.6888	211.228
24.8313	210.465
24.9747	209.703
25.1189	208.943
25.2639	208.184
25.4097	207.426
25.5564	206.67
25.704	205.914
25.8523	205.16
26.0016	204.408
26.1517	203.656
26.3027	202.906
26.4545	202.157
26.6073	201.409
26.7609	200.766
26.9153	200.02
27.0707	199.276
27.227	198.533
27.3842	197.583
27.5423	196.84
27.7013	196.117
27.8612	195.376
28.0221	194.635
28.1838	193.898
28.3465	193.162
28.5102	192.436
28.6748	191.704
28.8403	190.973
29.0068	190.243
29.1743	189.515
29.3427	188.788
29.5121	188.063
29.6825	187.34
29.8538	186.618
30.0262	185.898
30.1995	185.179
30.3739	184.464
30.5492	183.749
30.7256	183.035
30.903	182.322
31.0814	181.611
31.2608	180.921
31.4413	180.213
31.6228	179.513
31.8053	178.815
31.989	178.117
32.1736	177.422
32.3594	176.728
32.5462	176.095
32.7341	175.404
32.923	174.714
33.1131	174.026
33.3043	173.341
33.4965	172.656
33.6899	171.973
33.8844	171.292
34.08	170.612
34.2768	169.932
34.4747	169.256
34.6737	168.582
34.8739	167.909
35.0752	167.238
35.2777	166.568
35.4813	165.9
35.6862	165.234
35.8922	164.57
36.0994	163.908
36.3078	163.247
36.5174	162.588
36.7282	161.945
36.9403	161.289
37.1535	160.639
37.368	159.987
37.5837	159.336
37.8007	158.687
38.0189	158.041
38.2384	157.396
38.4592	156.755
38.6812	156.123
38.9045	155.492
39.1291	154.863
39.355	154.236
39.5822	153.61
39.8107	152.986
40.0405	152.401
40.2717	151.78
40.5042	151.161
40.738	150.543
40.9732	149.927
41.2098	149.313
41.4477	148.701
41.6869	148.091
41.9276	147.482
42.1697	146.876
42.4131	146.27
42.658	145.667
42.9042	145.066
43.1519	144.466
43.401	143.868
43.6516	143.272
43.9036	142.678
44.157	142.086
44.412	141.495
44.6684	140.928
44.9262	140.34
45.1856	139.755
45.4465	139.171
45.7088	138.59
45.9727	138.009
46.2381	137.432
46.505	136.855
46.7735	136.281
47.0435	135.708
47.3151	135.138
47.5883	134.569
47.863	134.001
48.1393	133.437
48.4172	132.873
48.6968	132.312
48.9779	131.801
49.2606	131.243
49.545	130.687
49.831	130.132
50.1187	129.579
50.4081	129.029
50.6991	128.481
50.9918	127.934
51.2861	127.389
51.5822	126.854
51.88	126.312
52.1795	125.773
52.4807	125.24
52.7837	124.704
53.0884	124.17
53.3949	123.638
53.7032	123.107
54.0132	122.579
54.325	122.052
54.6387	121.527
54.9541	121.004
55.2713	120.483
55.5904	119.964
55.9114	119.447
56.2341	118.932
56.5588	118.418
56.8853	117.906
57.2137	117.396
57.544	116.888
57.8762	116.381
58.2103	115.877
58.5464	115.375
58.8844	114.874
59.2243	114.375
59.5662	113.878
59.9101	113.383
60.256	112.889
60.6038	112.398
60.9537	111.908
61.3056	111.42
61.6595	110.934
62.0155	110.451
62.3735	109.968
62.7336	109.5
63.0957	109.021
63.46	108.544
63.8263	108.069
64.1948	107.595
64.5654	107.123
64.9382	106.653
65.3131	106.184
65.6901	105.718
66.0693	105.253
66.4508	104.79
66.8344	104.329
67.2202	103.879
67.6083	103.421
67.9986	102.965
68.3912	102.511
68.786	102.058
69.1831	101.607
69.5825	101.158
69.9842	100.711
70.3882	100.265
70.7946	99.8211
71.2033	99.3795
71.6143	98.9391
72.0278	98.5001
72.4436	98.0631
72.8618	97.6279
73.2825	97.1942
73.7055	96.7659
74.131	96.3355
74.559	95.9071
74.9894	95.4802
75.4223	95.0551
75.8578	94.6316
76.2957	94.2098
76.7361	93.7896
77.1792	93.3712
77.6247	92.9547
78.0728	92.5393
78.5236	92.1261
78.9769	91.7144
79.4328	91.3041
79.8914	90.8957
80.3526	90.4887
80.8165	90.0836
81.2831	89.6799
81.7523	89.2781
82.2243	88.8934
82.699	88.4944
83.1764	88.097
83.6566	87.7013
84.1395	87.3071
84.6253	86.9147
85.1138	86.5237
85.6052	86.1342
86.0994	85.7465
86.5964	85.3602
87.0964	84.9763
87.5992	84.5933
88.1049	84.2119
88.6135	83.8321
89.1251	83.4536
89.6396	83.0769
90.1571	82.7016
90.6776	82.3278
91.2011	81.9557
91.7276	81.5853
92.2571	81.2163
92.7897	80.8488
93.3254	80.4827
93.8642	80.1183
94.4061	79.7614
94.9511	79.4
95.4993	79.0397
96.0506	78.6812
96.6051	78.3243
97.1628	77.9689
97.7237	77.6148
98.2879	77.2621
98.8553	76.9111
99.426	76.5615
100	76.2133
100.577	75.8664
101.158	75.5212
101.742	75.1774
102.329	74.835
102.92	74.4942
103.514	74.1549
104.112	73.8168
104.713	73.4801
105.317	73.1451
105.925	72.8111
106.537	72.4788
107.152	72.1482
107.771	71.8186
108.393	71.4906
109.018	71.1637
109.648	70.8384
110.281	70.5147
110.917	70.1921
111.558	69.8711
112.202	69.5511
112.85	69.2328
113.501	68.9157
114.156	68.6
114.815	68.2859
115.478	67.9825
116.145	67.6707
116.815	67.3602
117.49	67.0513
118.168	66.7434
118.85	66.4371
119.536	66.1321
120.226	65.8284
120.921	65.5256
121.619	65.2248
122.321	64.9249
123.027	64.6264
123.737	64.329
124.451	64.0334
125.17	63.7386
125.893	63.4454
126.619	63.1532
127.35	62.8626
128.086	62.5729
128.825	62.2847
129.569	61.9979
130.317	61.7123
131.069	61.4276
131.826	61.1445
132.587	60.8626
133.352	60.5817
134.122	60.3023
134.896	60.0241
135.675	59.7472
136.458	59.4713
137.246	59.1967
138.038	58.9235
138.835	58.6513
139.637	58.3804
140.443	58.1107
141.254	57.8422
142.069	57.5749
142.889	57.3087
143.714	57.0438
144.544	56.78
145.378	56.5174
146.218	56.2559
147.062	55.9957
147.911	55.7366
148.765	55.4786
149.624	55.2218
150.487	54.9662
151.356	54.7117
152.23	54.4583
153.109	54.2061
153.993	53.955
154.882	53.705
155.776	53.4562
156.675	53.2085
157.58	52.9619
158.489	52.7164
159.404	52.472
160.325	52.2287
161.25	51.9865
162.181	51.7454
163.117	51.5054
164.059	51.2665
165.006	51.0286
165.959	50.7918
166.917	50.5561
167.88	50.3215
168.85	50.088
169.824	49.8555
170.805	49.6241
171.791	49.3937
172.783	49.1644
173.78	48.9361
174.783	48.7088
175.792	48.4826
176.807	48.2574
177.828	48.0332
178.855	47.8101
179.887	47.5879
180.926	47.3668
181.97	47.1467
183.021	46.9276
184.077	46.7095
185.14	46.4925
186.209	46.2764
187.284	46.0613
188.365	45.8471
189.452	45.6339
190.546	45.4217
191.646	45.2106
192.752	45.0003
193.865	44.7911
194.984	44.5828
196.11	44.3754
197.242	44.169
198.381	43.9635
199.526	43.7591
200.678	43.5555
201.837	43.3529
203.002	43.1511
204.174	42.9504
205.353	42.7506
206.538	42.5517
207.73	42.3536
208.93	42.1566
210.136	41.9604
211.349	41.7651
212.569	41.5708
213.796	41.3773
215.03	41.1848
216.272	40.9931
217.52	40.8023
218.776	40.6124
220.039	40.4234
221.309	40.2353
222.587	40.048
223.872	39.8616
225.165	39.6761
226.464	39.4914
227.772	39.3076
229.087	39.1246
230.409	38.9425
231.739	38.7613
233.077	38.5809
234.423	38.4014
235.776	38.2226
237.137	38.0447
238.506	37.8677
239.883	37.6915
241.268	37.5161
242.661	37.3415
244.062	37.1677
245.471	36.9947
246.888	36.8226
248.313	36.6513
249.747	36.4807
251.189	36.311
252.639	36.142
254.097	35.9739
255.564	35.8066
257.04	35.64
258.523	35.4742
260.016	35.3092
261.517	35.145
263.027	34.9815
264.545	34.8189
266.073	34.6569
267.609	34.4957
269.153	34.3354
270.707	34.1757
272.27	34.0168
273.842	33.8587
275.423	33.7013
277.013	33.5446
278.612	33.3887
280.221	33.2335
281.838	33.0791
283.465	32.9254
285.102	32.7724
286.748	32.6202
288.403	32.4686
290.068	32.3179
291.743	32.1677
293.427	32.0184
295.121	31.8697
296.825	31.7217
298.538	31.5744
300.262	31.4279
301.995	31.282
303.739	31.1368
305.492	30.9923
307.256	30.8485
309.03	30.7054
310.814	30.563
312.608	30.4212
314.413	30.2802
316.228	30.1397
318.053	30
319.89	29.8609
321.736	29.7225
323.594	29.5848
325.462	29.4477
327.341	29.3113
329.23	29.1755
331.131	29.0403
333.043	28.9058
334.965	28.772
336.899	28.6387
338.844	28.5062
340.8	28.3743
342.768	28.243
344.747	28.1123
346.737	27.9823
348.739	27.8528
350.752	27.724
352.777	27.5959
354.813	27.4683
356.862	27.3413
358.922	27.215
360.994	27.0893
363.078	26.9641
365.174	26.8396
367.282	26.7157
369.403	26.5923
371.535	26.4695
373.68	26.3474
375.837	26.2258
378.007	26.1049
380.189	25.9844
382.384	25.8647
384.592	25.7454
386.812	25.6267
389.045	25.5087
391.291	25.3911
393.55	25.2742
395.822	25.1578
398.107	25.042
400.405	24.9267
402.717	24.812
405.042	24.6978
407.38	24.5843
409.732	24.4712
412.098	24.3587
414.477	24.2467
416.869	24.1353
419.276	24.0244
421.697	23.9141
424.131	23.8043
426.58	23.695
429.042	23.5862
431.519	23.478
434.01	23.3703
436.516	23.2632
439.036	23.1565
441.57	23.0504
444.12	22.9448
446.684	22.8397
449.262	22.7351
451.856	22.631
454.465	22.5274
457.088	22.4243
459.727	22.3218
462.381	22.2197
465.05	22.1181
467.735	22.0171
470.435	21.9165
473.151	21.8164
475.883	21.7168
478.63	21.6177
481.393	21.519
484.172	21.4208
486.968	21.3232
489.779	21.226
492.606	21.1293
495.45	21.033
498.31	20.9373
501.187	20.8419
504.081	20.7471
506.991	20.6527
509.918	20.5588
512.861	20.4654
515.822	20.3724
518.8	20.2798
521.795	20.1877
524.807	20.0961
527.837	20.0049
530.884	19.9142
533.949	19.8238
537.032	19.734
540.132	19.6446
543.25	19.5556
546.387	19.4671
549.541	19.379
552.713	19.2913
555.904	19.2041
559.114	19.1173
562.341	19.0309
565.588	18.9449
568.853	18.8594
572.137	18.7743
575.44	18.6896
578.762	18.6053
582.103	18.5215
585.464	18.438
588.844	18.355
592.243	18.2723
595.662	18.1902
599.101	18.1083
602.56	18.0269
606.038	17.9459
609.537	17.8654
613.056	17.7851
616.595	17.7053
620.155	17.6259
623.735	17.5469
627.336	17.4683
630.957	17.39
634.6	17.3122
638.263	17.2347
641.948	17.1576
645.654	17.0809
649.382	17.0046
653.131	16.9287
656.901	16.8531
660.693	16.7779
664.508	16.7031
668.344	16.6287
672.202	16.5546
676.083	16.4809
679.986	16.4076
683.912	16.3346
687.86	16.262
691.831	16.1898
695.825	16.1179
699.842	16.0463
703.882	15.9752
707.946	15.9043
712.033	15.8339
716.143	15.7637
720.278	15.694
724.436	15.6246
728.618	15.5555
732.825	15.4868
737.055	15.4184
741.31	15.3504
745.59	15.2826
749.894	15.2153
754.223	15.1483
758.578	15.0816
762.957	15.0152
767.361	14.9492
771.792	14.8835
776.247	14.8182
780.728	14.7531
785.236	14.6884
789.769	14.624
794.328	14.56
798.914	14.4962
803.526	14.4328
808.165	14.3697
812.831	14.3069
817.523	14.2444
822.243	14.1823
826.99	14.1205
831.764	14.0589
836.566	13.9977
841.395	13.9368
846.253	13.8762
851.138	13.8159
856.052	13.7559
860.994	13.6962
865.964	13.6368
870.964	13.5777
875.992	13.5189
881.049	13.4604
886.135	13.4022
891.251	13.3443
896.396	13.2867
901.571	13.2293
906.776	13.1723
912.011	13.1156
917.276	13.0591
922.571	13.0029
927.897	12.947
933.254	12.8914
938.642	12.8361
944.061	12.781
949.511	12.7263
954.993	12.6718
960.506	12.6176
966.051	12.5636
971.628	12.51
977.237	12.4566
982.879	12.4035
988.553	12.3506
994.26	12.298
1000	12.2457
1005.77	12.1937
1011.58	12.1419
1017.42	12.0904
1023.29	12.0392
1029.2	11.9881
1035.14	11.9374
1041.12	11.8869
1047.13	11.8367
1053.17	11.7868
1059.25	11.7371
1065.37	11.6876
1071.52	11.6384
1077.71	11.5895
1083.93	11.5408
1090.18	11.4923
1096.48	11.4441
1102.81	11.3962
1109.17	11.3485
1115.58	11.301
1122.02	11.2538
1128.5	11.2068
1135.01	11.1601
1141.56	11.1136
1148.15	11.0673
1154.78	11.0213
1161.45	10.9755
1168.15	10.93
1174.9	10.8847
1181.68	10.8396
1188.5	10.7948
1195.36	10.7501
1202.26	10.7057
1209.21	10.6616
1216.19	10.6177
1223.21	10.5739
1230.27	10.5305
1237.37	10.4872
1244.51	10.4442
1251.7	10.4014
1258.93	10.3588
1266.19	10.3164
1273.5	10.2743
1280.86	10.2324
1288.25	10.1906
1295.69	10.1492
1303.17	10.1079
1310.69	10.0668
1318.26	10.026
1325.87	9.98533
1333.52	9.94491
1341.22	9.90468
1348.96	9.86468
1356.75	9.82486
1364.58	9.78527
1372.46	9.74591
1380.38	9.7067
1388.35	9.66775
1396.37	9.62896
1404.43	9.59039
1412.54	9.55204
1420.69	9.51384
1428.89	9.4759
1437.14	9.43811
1445.44	9.40055
1453.78	9.36317
1462.18	9.32597
1470.62	9.289
1479.11	9.25221
1487.65	9.2156
1496.24	9.17918
1504.87	9.14298
1513.56	9.10696
1522.3	9.07112
1531.09	9.03547
1539.93	9
1548.82	8.96471
1557.76	8.92964
1566.75	8.89474
1575.8	8.86
1584.89	8.82547
1594.04	8.79112
1603.25	8.75695
1612.5	8.72295
1621.81	8.68914
1631.17	8.65551
1640.59	8.62205
1650.06	8.58878
1659.59	8.55567
1669.17	8.52272
1678.8	8.48997
1688.5	8.4574
1698.24	8.42498
1708.05	8.39276
1717.91	8.36068
1727.83	8.32882
1737.8	8.29709
1747.83	8.26554
1757.92	8.23413
1768.07	8.20292
1778.28	8.17186
1788.55	8.14097
1798.87	8.11025
1809.26	8.07971
1819.7	8.0493
1830.21	8.0191
1840.77	7.989
1851.4	7.9591
1862.09	7.92934
1872.84	7.89976
1883.65	7.87034
1894.52	7.84106
1905.46	7.81195
1916.46	7.78301
1927.52	7.7542
1938.65	7.72553
1949.84	7.69706
1961.1	7.66872
1972.42	7.64052
1983.81	7.61248
1995.26	7.58461
2006.78	7.55688
2018.37	7.52931
2030.02	7.50187
2041.74	7.4746
2053.53	7.44746
2065.38	7.42045
2077.3	7.39364
2089.3	7.36693
2101.36	7.34038
2113.49	7.31396
2125.69	7.2877
2137.96	7.26158
2150.3	7.23561
2162.72	7.20978
2175.2	7.18407
2187.76	7.15853
2200.39	7.13311
2213.09	7.10786
2225.87	7.0827
2238.72	7.0577
2251.65	7.03286
2264.64	7.00812
2277.72	6.98353
2290.87	6.95907
2304.09	6.93477
2317.39	6.91059
2330.77	6.88654
2344.23	6.86262
2357.76	6.83882
2371.37	6.81518
2385.06	6.79163
2398.83	6.76824
2412.68	6.745
2426.61	6.72185
2440.62	6.69883
2454.71	6.67597
2468.88	6.65322
2483.13	6.63057
2497.47	6.60807
2511.89	6.58572
2526.39	6.56347
2540.97	6.54133
2555.64	6.51932
2570.4	6.49746
2585.23	6.47569
2600.16	6.45407
2615.17	6.43254
2630.27	6.41116
2645.45	6.38987
2660.73	6.36873
2676.09	6.34771
2691.53	6.32678
2707.07	6.306
2722.7	6.2853
2738.42	6.26475
2754.23	6.24429
2770.13	6.22398
2786.12	6.20376
2802.21	6.18365
2818.38	6.16367
2834.65	6.1438
2851.02	6.12404
2867.48	6.10439
2884.03	6.08485
2900.68	6.06543
2917.43	6.04612
2934.27	6.02691
2951.21	6.00782
2968.25	5.98884
2985.38	5.96997
3002.62	5.9512
3019.95	5.93254
3037.39	5.91399
3054.92	5.89555
3072.56	5.87721
3090.3	5.85898
3108.14	5.84086
3126.08	5.82283
3144.13	5.80492
3162.28	5.78711
3180.53	5.7694
3198.9	5.75179
3217.36	5.73429
3235.94	5.71689
3254.62	5.69959
3273.41	5.68239
3292.3	5.66529
3311.31	5.6483
3330.43	5.6314
3349.65	5.6146
3368.99	5.5979
3388.44	5.5813
3408	5.56479
3427.68	5.54839
3447.47	5.53207
3467.37	5.51586
3487.39	5.49975
3507.52	5.48372
3527.77	5.4678
3548.13	5.45196
3568.62	5.43623
3589.22	5.42058
3609.94	5.40503
3630.78	5.38957
3651.74	5.37421
3672.82	5.35894
3694.03	5.34376
3715.35	5.32867
3736.8	5.31367
3758.37	5.29876
3780.07	5.28395
3801.89	5.26922
3823.84	5.25458
3845.92	5.24002
3868.12	5.22556
3890.45	5.21119
3912.91	5.1969
3935.5	5.1827
3958.22	5.16858
3981.07	5.15456
4004.05	5.14062
4027.17	5.12676
4050.42	5.11299
4073.8	5.09931
4097.32	5.0857
4120.98	5.07219
4144.77	5.05876
4168.69	5.04541
4192.76	5.03214
4216.97	5.01895
4241.31	5.00585
4265.8	4.99282
4290.42	4.97988
4315.19	4.96703
4340.1	4.95425
4365.16	4.94155
4390.36	4.92893
4415.7	4.91639
4441.2	4.90393
4466.84	4.89155
4492.62	4.87924
4518.56	4.86702
4544.65	4.85487
4570.88	4.8428
4597.27	4.83081
4623.81	4.81889
4650.5	4.80705
4677.35	4.79529
4704.35	4.7836
4731.51	4.77198
4758.83	4.76045
4786.3	4.74898
4813.93	4.73759
4841.72	4.72628
4869.68	4.71503
4897.79	4.70386
4926.06	4.69277
4954.5	4.68175
4983.1	4.67079
5011.87	4.65991
5040.81	4.6491
5069.91	4.63837
5099.18	4.6277
5128.61	4.6171
5158.22	4.60658
5188	4.59612
5217.95	4.58573
5248.07	4.57541
5278.37	4.56517
5308.84	4.55499
5339.49	4.54488
5370.32	4.53483
5401.32	4.52486
5432.5	4.51495
5463.87	4.50511
5495.41	4.49533
5527.13	4.48562
5559.04	4.47598
5591.14	4.46641
5623.41	4.4569
5655.88	4.44745
5688.53	4.43807
5721.37	4.42875
5754.4	4.4195
5787.62	4.41032
5821.03	4.4012
5854.64	4.39214
5888.44	4.38314
5922.43	4.3742
5956.62	4.36534
5991.01	4.35653
6025.6	4.34778
6060.38	4.33909
6095.37	4.33047
6130.56	4.32191
6165.95	4.31341
6201.55	4.30497
6237.35	4.29659
6273.36	4.28827
6309.57	4.28001
6346	4.27181
6382.63	4.26367
6419.48	4.25559
6456.54	4.24757
6493.82	4.2396
6531.31	4.2317
6569.01	4.22385
6606.93	4.21606
6645.08	4.20833
6683.44	4.20065
6722.02	4.19303
6760.83	4.18547
6799.86	4.17791
6839.12	4.17039
6878.6	4.16292
6918.31	4.15551
6958.25	4.14815
6998.42	4.14085
7038.82	4.1336
7079.46	4.12641
7120.33	4.11927
7161.43	4.11219
7202.78	4.10515
7244.36	4.09818
7286.18	4.09125
7328.25	4.08438
7370.55	4.07757
7413.1	4.0708
7455.9	4.06409
7498.94	4.05743
7542.23	4.05082
7585.78	4.04426
7629.57	4.03776
7673.61	4.0313
7717.92	4.0249
7762.47	4.01855
7807.28	4.01224
7852.36	4.006
7897.69	3.99979
7943.28	3.99364
7989.14	3.98754
8035.26	3.98149
8081.65	3.97548
8128.31	3.96953
8175.23	3.96362
8222.43	3.95776
8269.9	3.95195
8317.64	3.94619
8365.66	3.94048
8413.95	3.93481
8462.53	3.92919
8511.38	3.92362
8560.52	3.9181
8609.94	3.91262
8659.64	3.90719
8709.64	3.90177
8759.92	3.8963
8810.49	3.89087
8861.35	3.88549
8912.51	3.88016
8963.96	3.87487
9015.71	3.86962
9067.76	3.86442
9120.11	3.85926
9172.76	3.85415
9225.71	3.84908
9278.97	3.84406
9332.54	3.83908
9386.42	3.83414
9440.61	3.82924
9495.11	3.82439
9549.93	3.81958
9605.06	3.81482
9660.51	3.81009
9716.28	3.80541
9772.37	3.80077
9828.79	3.79617
9885.53	3.79162
9942.6	3.7871
10000	3.78263
10057.7	3.7782
10115.8	3.7738
10174.2	3.76945
10232.9	3.76514
10292	3.76087
10351.4	3.75664
10411.2	3.75245
10471.3	3.7483
10531.7	3.74418
10592.5	3.74011
10653.7	3.73599
10715.2	3.73178
10777.1	3.72762
10839.3	3.72349
10901.8	3.71941
10964.8	3.71536
11028.1	3.71135
11091.7	3.70737
11155.8	3.70343
11220.2	3.69953
11285	3.69567
11350.1	3.69184
11415.6	3.68805
11481.5	3.6843
11547.8	3.68058
11614.5	3.6769
11681.5	3.67326
11749	3.66965
11816.8	3.66608
11885	3.66253
11953.6	3.65903
12022.6	3.65556
12092.1	3.65213
12161.9	3.64873
12232.1	3.64536
12302.7	3.64203
12373.7	3.63874
12445.1	3.63547
12517	3.63225
12589.3	3.62905
12661.9	3.62588
12735	3.62276
12808.6	3.61966
12882.5	3.6166
12956.9	3.61357
13031.7	3.61057
13106.9	3.6076
13182.6	3.60467
13258.7	3.60177
13335.2	3.5989
13412.2	3.59606
13489.6	3.59326
13567.5	3.59048
13645.8	3.58774
13724.6	3.58503
13803.8	3.58235
13883.5	3.57969
13963.7	3.57707
14044.3	3.57448
14125.4	3.57193
14206.9	3.5694
14288.9	3.5669
14371.4	3.56443
14454.4	3.56199
14537.8	3.55958
14621.8	3.5572
14706.2	3.55484
14791.1	3.55252
14876.5	3.55023
14962.4	3.54796
15048.7	3.54573
15135.6	3.54352
15223	3.54134
15310.9	3.53919
15399.3	3.53707
15488.2	3.53497
15577.6	3.5329
15667.5	3.53086
15758	3.52885
15848.9	3.52686
15940.4	3.5249
16032.5	3.52297
16125	3.52106
16218.1	3.51919
16311.7	3.51733
16405.9	3.51551
16500.6	3.51371
16595.9	3.51193
16691.7	3.51019
16788	3.50846
16885	3.50677
16982.4	3.5051
17080.5	3.50345
17179.1	3.50183
17278.3	3.50024
17378	3.49867
17478.3	3.49712
17579.2	3.4956
17680.7	3.49411
17782.8	3.49263
17885.5	3.49119
17988.7	3.48977
18092.6	3.48837
18197	3.48699
18302.1	3.48564
18407.7	3.48431
18514	3.48301
18620.9	3.48173
18728.4	3.48047
18836.5	3.47923
18945.2	3.47802
19054.6	3.47683
19164.6	3.47567
19275.2	3.47452
19386.5	3.4734
19498.4	3.4723
19611	3.47123
19724.2	3.47017
19838.1	3.46914
19952.6	3.46813
20067.8	3.46714
20183.7	3.46617
20300.2	3.46522
20417.4	3.4643
20535.3	3.46339
20653.8	3.46251
20773	3.46165
20893	3.46081
21013.6	3.45998
21134.9	3.45918
21256.9	3.45841
21379.6	3.45764
21503	3.4569
21627.2	3.45619
21752	3.45549
21877.6	3.45481
22003.9	3.45414
22130.9	3.4535
22258.7	3.45289
22387.2	3.45228
22516.5	3.4517
22646.4	3.45114
22777.2	3.45059
22908.7	3.45007
23040.9	3.44956
23173.9	3.44907
23307.7	3.4486
23442.3	3.44815
23577.6	3.44772
23713.7	3.44731
23850.6	3.44691
23988.3	3.44653
24126.8	3.44617
24266.1	3.44583
24406.2	3.44551
24547.1	3.4452
24688.8	3.44491
24831.3	3.44464
24974.7	3.44438
25118.9	3.44414
25263.9	3.44392
25409.7	3.44371
25556.4	3.44352
25704	3.44335
25852.3	3.4432
26001.6	3.44306
26151.7	3.44294
26302.7	3.44283
26454.5	3.44275
26607.3	3.44267
26760.9	3.44261
26915.3	3.44257
27070.7	3.44255
27227	3.44254
27384.2	3.44254
27542.3	3.44256
27701.3	3.4426
27861.2	3.44265
28022.1	3.44272
28183.8	3.4428
28346.5	3.44289
28510.2	3.44301
28674.8	3.44313
28840.3	3.44327
29006.8	3.44343
29174.3	3.4436
29342.7	3.44378
29512.1	3.44398
29682.5	3.44419
29853.8	3.44441
30026.2	3.44466
30199.5	3.44491
30373.9	3.44518
30549.2	3.44546
30725.6	3.44575
30903	3.44606
31081.4	3.44639
31260.8	3.44672
31441.3	3.44707
31622.8	3.44743
31805.3	3.44781
31989	3.44819
32173.6	3.44859
32359.4	3.44901
32546.2	3.44943
32734.1	3.44987
32923	3.45032
33113.1	3.45079
33304.3	3.45126
33496.5	3.45175
33689.9	3.45225
33884.4	3.45276
34080	3.45329
34276.8	3.45382
34474.7	3.45437
34673.7	3.45493
34873.9	3.4555
35075.2	3.45608
35277.7	3.45668
35481.3	3.45728
35686.2	3.4579
35892.2	3.45853
36099.4	3.45917
36307.8	3.45982
36517.4	3.46048
36728.2	3.46115
36940.3	3.46184
37153.5	3.46253
37368	3.46324
37583.7	3.46395
37800.7	3.46468
38018.9	3.46541
38238.4	3.46616
38459.2	3.46691
38681.2	3.46768
38904.5	3.46846
39129.1	3.46924
39355	3.47004
39582.2	3.47085
39810.7	3.47167
40040.5	3.47249
40271.7	3.47333
40504.2	3.47417
40738	3.47503
40973.2	3.47589
41209.8	3.47677
41447.7	3.47765
41686.9	3.47854
41927.6	3.47945
42169.7	3.48035
42413.1	3.48127
42658	3.48221
42904.2	3.48314
43151.9	3.48409
43401	3.48505
43651.6	3.48601
43903.6	3.48698
44157	3.48796
44412	3.48895
44668.4	3.48995
44926.2	3.49096
45185.6	3.49197
45446.5	3.49299
45708.8	3.49403
45972.7	3.49507
46238.1	3.49611
46505	3.49716
46773.5	3.49823
47043.5	3.4993
47315.1	3.50038
47588.3	3.50146
47863	3.50256
48139.3	3.50366
48417.2	3.50477
48696.8	3.50588
48977.9	3.50701
49260.6	3.50814
49545	3.50927
49831	3.51042
50118.7	3.51157
50408.1	3.51273
50699.1	3.5139
50991.8	3.51507
51286.1	3.51625
51582.2	3.51744
51880	3.51863
52179.5	3.51983
52480.7	3.52103
52783.7	3.52225
53088.4	3.52347
53394.9	3.5247
53703.2	3.52593
54013.2	3.52717
54325	3.52841
54638.7	3.52967
54954.1	3.53092
55271.3	3.53219
55590.4	3.53346
55911.4	3.53474
56234.1	3.53602
56558.8	3.5373
56885.3	3.5386
57213.7	3.5399
57544	3.5412
57876.2	3.54252
58210.3	3.54384
58546.4	3.54516
58884.4	3.54649
59224.3	3.54782
59566.2	3.54916
59910.1	3.55051
60256	3.55186
60603.8	3.55321
60953.7	3.55457
61305.6	3.55594
61659.5	3.55731
62015.5	3.55869
62373.5	3.56007
62733.6	3.56145
63095.7	3.56285
63460	3.56424
63826.3	3.56564
64194.8	3.56705
64565.4	3.56846
64938.2	3.56988
65313.1	3.57129
65690.1	3.57272
66069.3	3.57415
66450.8	3.57558
66834.4	3.57702
67220.2	3.57846
67608.3	3.57991
67998.6	3.58137
68391.2	3.58282
68786	3.58428
69183.1	3.58575
69582.5	3.58722
69984.2	3.58869
70388.2	3.59017
70794.6	3.59165
71203.3	3.59314
71614.3	3.59462
72027.8	3.59612
72443.6	3.59761
72861.8	3.59912
73282.5	3.60062
73705.5	3.60213
74131	3.60364
74559	3.60516
74989.4	3.60668
75422.3	3.6082
75857.8	3.60973
76295.7	3.61126
76736.1	3.6128
77179.2	3.61434
77624.7	3.61587
78072.8	3.61742
78523.6	3.61897
78976.9	3.62052
79432.8	3.62208
79891.4	3.62364
80352.6	3.6252
80816.5	3.62677
81283.1	3.62833
81752.3	3.6299
82224.3	3.63148
82699	3.63306
83176.4	3.63464
83656.6	3.63622
84139.5	3.63781
84625.3	3.63939
85113.8	3.64099
85605.2	3.64258
86099.4	3.64418
86596.4	3.64578
87096.4	3.64739
87599.2	3.64899
88104.9	3.6506
88613.5	3.65221
89125.1	3.65383
89639.6	3.65545
90157.1	3.65706
90677.6	3.65869
91201.1	3.66031
91727.6	3.66194
92257.1	3.66357
92789.7	3.6652
93325.4	3.66684
93864.2	3.66847
94406.1	3.67011
94951.1	3.67176
95499.3	3.6734
96050.6	3.67505
96605.1	3.67669
97162.8	3.67835
97723.7	3.68
98287.9	3.68165
98855.3	3.68331
99426	3.68497
100000	3.68663
100577	3.6883
101158	3.68996
101742	3.69163
102329	3.6933
102920	3.69497
103514	3.69665
104112	3.69832
104713	3.7
105317	3.70168
105925	3.70336
106537	3.70504
107152	3.70673
107771	3.70841
108393	3.7101
109018	3.71179
109648	3.71348
110281	3.71517
110917	3.71687
111558	3.71856
112202	3.72026
112850	3.72196
113501	3.72366
114156	3.72537
114815	3.72707
115478	3.72877
116145	3.73048
116815	3.73219
117490	3.7339
118168	3.73561
118850	3.73732
119536	3.73904
120226	3.74075
120921	3.74247
121619	3.74419
122321	3.74591
123027	3.74763
123737	3.74935
124451	3.75107
125170	3.75279
125893	3.75452
126619	3.75625
127350	3.75798
128086	3.7597
128825	3.76143
129569	3.76316
130317	3.7649
131069	3.76663
131826	3.76836
132587	3.7701
133352	3.77183
134122	3.77357
134896	3.77531
135675	3.77705
136458	3.77879
137246	3.78053
138038	3.78227
138835	3.78401
139637	3.78575
140443	3.7875
141254	3.78924
142069	3.79099
142889	3.79273
143714	3.79448
144544	3.79623
145378	3.79798
146218	3.79973
147062	3.80147
147911	3.80323
148765	3.80498
149624	3.80673
150487	3.80849
151356	3.81024
152230	3.81199
153109	3.81375
153993	3.8155
154882	3.81726
155776	3.81902
156675	3.82077
157580	3.82253
158489	3.82429
159404	3.82605
160325	3.8278
161250	3.82956
162181	3.83132
163117	3.83308
164059	3.83485
165006	3.83661
165959	3.83837
166917	3.84013
167880	3.84189
168850	3.84366
169824	3.84542
170805	3.84718
171791	3.84895
172783	3.85071
173780	3.85247
174783	3.85424
175792	3.856
176807	3.85777
177828	3.85954
178855	3.8613
179887	3.86307
180926	3.86483
181970	3.8666
183021	3.86837
184077	3.87014
185140	3.8719
186209	3.87367
187284	3.87544
188365	3.87721
189452	3.87898
190546	3.88074
191646	3.88251
192752	3.88428
193865	3.88605
194984	3.88782
196110	3.88958
197242	3.89136
198381	3.89312
199526	3.89489
200678	3.89666
201837	3.89843
203002	3.9002
204174	3.90197
205353	3.90374
206538	3.90551
207730	3.90728
208930	3.90904
210136	3.91082
211349	3.91258
212569	3.91435
213796	3.91613
215030	3.91789
216272	3.91966
217520	3.92143
218776	3.9232
220039	3.92497
221309	3.92674
222587	3.9285
223872	3.93027
225165	3.93204
226464	3.93381
227772	3.93558
229087	3.93735
230409	3.93912
231739	3.94088
233077	3.94265
234423	3.94442
235776	3.94619
237137	3.94796
238506	3.94972
239883	3.95149
241268	3.95326
242661	3.95502
244062	3.95679
245471	3.95855
246888	3.96032
248313	3.96209
249747	3.96385
251189	3.96562
252639	3.96738
254097	3.96915
255564	3.97091
257040	3.97267
258523	3.97444
260016	3.9762
261517	3.97797
263027	3.97973
264545	3.98149
266073	3.98325
267609	3.98502
269153	3.98678
270707	3.98854
272270	3.9903
273842	3.99206
275423	3.99382
277013	3.99558
278612	3.99734
280221	3.9991
281838	4.00086
283465	4.00262
285102	4.00438
286748	4.00614
288403	4.00789
290068	4.00965
291743	4.01141
293427	4.01317
295121	4.01492
296825	4.01668
298538	4.01843
300262	4.02019
301995	4.02195
303739	4.0237
305492	4.02545
307256	4.02721
309030	4.02896
310814	4.03071
312608	4.03246
314413	4.03422
316228	4.03597
318053	4.03772
319890	4.03947
321736	4.04122
323594	4.04297
325462	4.04472
327341	4.04647
329230	4.04822
331131	4.04996
333043	4.05171
334965	4.05346
336899	4.0552
338844	4.05695
340800	4.0587
342768	4.06044
344747	4.06219
346737	4.06393
348739	4.06567
350752	4.06742
352777	4.06916
354813	4.0709
356862	4.07264
358922	4.07438
360994	4.07612
363078	4.07786
365174	4.0796
367282	4.08134
369403	4.08308
371535	4.08482
373680	4.08655
375837	4.08829
378007	4.09003
380189	4.09176
382384	4.0935
384592	4.09523
386812	4.09697
389045	4.0987
391291	4.10043
393550	4.10217
395822	4.1039
398107	4.10563
400405	4.10736
402717	4.10909
405042	4.11082
407380	4.11255
409732	4.11428
412098	4.116
414477	4.11773
416869	4.11946
419276	4.12118
421697	4.12291
424131	4.12463
426580	4.12636
429042	4.12808
431519	4.12981
434010	4.13153
436516	4.13325
439036	4.13497
441570	4.13669
444120	4.13841
446684	4.14013
449262	4.14185
451856	4.14357
454465	4.14528
457088	4.147
459727	4.14872
462381	4.15043
465050	4.15215
467735	4.15387
470435	4.15558
473151	4.15729
475883	4.159
478630	4.16072
481393	4.16243
484172	4.16414
486968	4.16585
489779	4.16756
492606	4.16927
495450	4.17098
498310	4.17269
501187	4.17439
504081	4.17609
506991	4.1778
509918	4.17951
512861	4.18121
515822	4.18292
518800	4.18462
521795	4.18632
524807	4.18802
527837	4.18972
530884	4.19143
533949	4.19312
537032	4.19482
540132	4.19652
543250	4.19822
546387	4.19992
549541	4.20162
552713	4.20331
555904	4.205
559114	4.2067
562341	4.20839
565588	4.21008
568853	4.21178
572137	4.21347
575440	4.21516
578762	4.21685
582103	4.21854
585464	4.22023
588844	4.22192
592243	4.22361
595662	4.22529
599101	4.22698
602560	4.22867
606038	4.23035
609537	4.23204
613056	4.23372
616595	4.2354
620155	4.23709
623735	4.23877
627336	4.24044
630957	4.24213
634600	4.2438
638263	4.24548
641948	4.24716
645654	4.24884
649382	4.25052
653131	4.25219
656901	4.25387
660693	4.25554
664508	4.25721
668344	4.25889
672202	4.26056
676083	4.26223
679986	4.26391
683912	4.26558
687860	4.26725
691831	4.26891
695825	4.27058
699842	4.27225
703882	4.27392
707946	4.27558
712033	4.27725
716143	4.27891
720278	4.28058
724436	4.28224
728618	4.2839
732825	4.28556
737055	4.28722
741310	4.28889
745590	4.29055
749894	4.2922
754223	4.29386
758578	4.29552
762957	4.29718
767361	4.29883
771792	4.30049
776247	4.30214
780728	4.3038
785236	4.30545
789769	4.3071
794328	4.30876
798914	4.31041
803526	4.31206
808165	4.31371
812831	4.31536
817523	4.31701
822243	4.31865
826990	4.3203
831764	4.32194
836566	4.32359
841395	4.32524
846253	4.32688
851138	4.32852
856052	4.33016
860994	4.3318
865964	4.33344
870964	4.33509
875992	4.33672
881049	4.33836
886135	4.34
891251	4.34164
896396	4.34327
901571	4.34491
906776	4.34654
912011	4.34818
917276	4.34981
922571	4.35145
927897	4.35308
933254	4.35471
938642	4.35634
944061	4.35797
949511	4.3596
954993	4.36123
960506	4.36285
966051	4.36448
971628	4.36611
977237	4.36773
982879	4.36936
988553	4.37098
994260	4.3726
1e+06	4.37422
1.00577e+06	4.37585
1.01158e+06	4.37747
1.01742e+06	4.37909
1.02329e+06	4.38071
1.0292e+06	4.38233
1.03514e+06	4.38394
1.04112e+06	4.38556
1.04713e+06	4.38718
1.05317e+06	4.38879
1.05925e+06	4.39041
1.06537e+06	4.39202
1.07152e+06	4.39363
1.07771e+06	4.39525
1.08393e+06	4.39686
1.09018e+06	4.39847
1.09648e+06	4.40008
1.10281e+06	4.40169
1.10917e+06	4.4033
1.11558e+06	4.40491
1.12202e+06	4.40651
1.1285e+06	4.40812
1.13501e+06	4.40973
1.14156e+06	4.41133
1.14815e+06	4.41294
1.15478e+06	4.41454
1.16145e+06	4.41614
1.16815e+06	4.41774
1.1749e+06	4.41934
1.18168e+06	4.42094
1.1885e+06	4.42254
1.19536e+06	4.42414
1.20226e+06	4.42574
1.20921e+06	4.42734
1.21619e+06	4.42893
1.22321e+06	4.43053
1.23027e+06	4.43213
1.23737e+06	4.43372
1.24451e+06	4.43532
1.2517e+06	4.43691
1.25893e+06	4.4385
1.26619e+06	4.44009
1.2735e+06	4.44168
1.28086e+06	4.44327
1.28825e+06	4.44486
1.29569e+06	4.44645
1.30317e+06	4.44803
1.31069e+06	4.44962
1.31826e+06	4.45121
1.32587e+06	4.45279
1.33352e+06	4.45438
1.34122e+06	4.45596
1.34896e+06	4.45754
1.35675e+06	4.45912
1.36458e+06	4.4607
1.37246e+06	4.46229
1.38038e+06	4.46387
1.38835e+06	4.46545
1.39637e+06	4.46702
1.40443e+06	4.4686
1.41254e+06	4.47017
1.42069e+06	4.47175
1.42889e+06	4.47333
1.43714e+06	4.4749
1.44544e+06	4.47647
1.45378e+06	4.47805
1.46218e+06	4.47962
1.47062e+06	4.48119
1.47911e+06	4.48276
1.48765e+06	4.48433
1.49624e+06	4.4859
1.50487e+06	4.48747
1.51356e+06	4.48903
1.5223e+06	4.4906
1.53109e+06	4.49217
1.53993e+06	4.49373
1.54882e+06	4.49529
1.55776e+06	4.49686
1.56675e+06	4.49842
1.5758e+06	4.49998
1.58489e+06	4.50154
1.59404e+06	4.5031
1.60325e+06	4.50466
1.6125e+06	4.50622
1.62181e+06	4.50777
1.63117e+06	4.50933
1.64059e+06	4.51089
1.65006e+06	4.51244
1.65959e+06	4.514
1.66917e+06	4.51555
1.6788e+06	4.51711
1.6885e+06	4.51866
1.69824e+06	4.52021
1.70805e+06	4.52176
1.71791e+06	4.52331
1.72783e+06	4.52486
1.7378e+06	4.52641
1.74783e+06	4.52795
1.75792e+06	4.5295
1.76807e+06	4.53105
1.77828e+06	4.53259
1.78855e+06	4.53413
1.79887e+06	4.53568
1.80926e+06	4.53722
1.8197e+06	4.53876
1.83021e+06	4.5403
1.84077e+06	4.54184
1.8514e+06	4.54338
1.86209e+06	4.54492
1.87284e+06	4.54646
1.88365e+06	4.548
1.89452e+06	4.54953
1.90546e+06	4.55106
1.91646e+06	4.5526
1.92752e+06	4.55414
1.93865e+06	4.55567
1.94984e+06	4.5572
1.9611e+06	4.55873
1.97242e+06	4.56026
1.98381e+06	4.56179
1.99526e+06	4.56332
2.00678e+06	4.56485
2.01837e+06	4.56637
2.03002e+06	4.5679
2.04174e+06	4.56942
2.05353e+06	4.57095
2.06538e+06	4.57247
2.0773e+06	4.574
2.0893e+06	4.57552
2.10136e+06	4.57704
2.11349e+06	4.57856
2.12569e+06	4.58008
2.13796e+06	4.5816
2.1503e+06	4.58312
2.16272e+06	4.58463
2.1752e+06	4.58615
2.18776e+06	4.58767
2.20039e+06	4.58918
2.21309e+06	4.5907
2.22587e+06	4.59221
2.23872e+06	4.59372
2.25165e+06	4.59523
2.26464e+06	4.59674
2.27772e+06	4.59825
2.29087e+06	4.59976
2.30409e+06	4.60127
2.31739e+06	4.60278
2.33077e+06	4.60428
2.34423e+06	4.60579
2.35776e+06	4.60729
2.37137e+06	4.6088
2.38506e+06	4.6103
2.39883e+06	4.6118
2.41268e+06	4.61331
2.42661e+06	4.61481
2.44062e+06	4.6163
2.45471e+06	4.6178
2.46888e+06	4.6193
2.48313e+06	4.6208
2.49747e+06	4.62229
2.51189e+06	4.62379
2.52639e+06	4.62529
2.54097e+06	4.62678
2.55564e+06	4.62827
2.5704e+06	4.62977
2.58523e+06	4.63126
2.60016e+06	4.63275
2.61517e+06	4.63424
2.63027e+06	4.63573
2.64545e+06	4.63721
2.66073e+06	4.6387
2.67609e+06	4.64019
2.69153e+06	4.64167
2.70707e+06	4.64316
2.7227e+06	4.64464
2.73842e+06	4.64613
2.75423e+06	4.64761
2.77013e+06	4.64909
2.78612e+06	4.65057
2.80221e+06	4.65205
2.81838e+06	4.65353
2.83465e+06	4.655
2.85102e+06	4.65648
2.86748e+06	4.65796
2.88403e+06	4.65943
2.90068e+06	4.66091
2.91743e+06	4.66238
2.93427e+06	4.66385
2.95121e+06	4.66533
2.96825e+06	4.6668
2.98538e+06	4.66827
3.00262e+06	4.66974
3.01995e+06	4.67121
3.03739e+06	4.67267
3.05492e+06	4.67414
3.07256e+06	4.67561
3.0903e+06	4.67707
3.10814e+06	4.67854
3.12608e+06	4.67999
3.14413e+06	4.68146
3.16228e+06	4.68292
3.18053e+06	4.68438
3.1989e+06	4.68584
3.21736e+06	4.6873
3.23594e+06	4.68876
3.25462e+06	4.69021
3.27341e+06	4.69167
3.2923e+06	4.69313
3.31131e+06	4.69458
3.33043e+06	4.69603
3.34965e+06	4.69749
3.36899e+06	4.69894
3.38844e+06	4.70039
3.408e+06	4.70184
3.42768e+06	4.70329
3.44747e+06	4.70474
3.46737e+06	4.70619
3.48739e+06	4.70763
3.50752e+06	4.70908
3.52777e+06	4.71052
3.54813e+06	4.71197
3.56862e+06	4.71341
3.58922e+06	4.71485
3.60994e+06	4.71629
3.63078e+06	4.71773
3.65174e+06	4.71917
3.67282e+06	4.72061
3.69403e+06	4.72205
3.71535e+06	4.72348
3.7368e+06	4.72492
3.75837e+06	4.72636
3.78007e+06	4.72779
3.80189e+06	4.72922
3.82384e+06	4.73065
3.84592e+06	4.73209
3.86812e+06	4.73352
3.89045e+06	4.73495
3.91291e+06	4.73637
3.9355e+06	4.7378
3.95822e+06	4.73923
3.98107e+06	4.74066
4.00405e+06	4.74208
4.02717e+06	4.7435
4.05042e+06	4.74493
4.0738e+06	4.74635
4.09732e+06	4.74777
4.12098e+06	4.74919
4.14477e+06	4.75061
4.16869e+06	4.75203
4.19276e+06	4.75345
4.21697e+06	4.75487
4.24131e+06	4.75628
4.2658e+06	4.75769
4.29042e+06	4.75911
4.31519e+06	4.76053
4.3401e+06	4.76194
4.36516e+06	4.76335
4.39036e+06	4.76476
4.4157e+06	4.76617
4.4412e+06	4.76758
4.46684e+06	4.76898
4.49262e+06	4.77039
4.51856e+06	4.7718
4.54465e+06	4.7732
4.57088e+06	4.77461
4.59727e+06	4.77601
4.62381e+06	4.77741
4.6505e+06	4.77881
4.67735e+06	4.78021
4.70435e+06	4.78161
4.73151e+06	4.78301
4.75883e+06	4.78441
4.7863e+06	4.78581
4.81393e+06	4.7872
4.84172e+06	4.78859
4.86968e+06	4.78999
4.89779e+06	4.79138
4.92606e+06	4.79278
4.9545e+06	4.79416
4.9831e+06	4.79555
5.01187e+06	4.79694
5.04081e+06	4.79833
5.06991e+06	4.79972
5.09918e+06	4.80111
5.12861e+06	4.80249
5.15822e+06	4.80388
5.188e+06	4.80526
5.21795e+06	4.80664
5.24807e+06	4.80802
5.27837e+06	4.8094
5.30884e+06	4.81078
5.33949e+06	4.81216
5.37032e+06	4.81354
5.40132e+06	4.81492
5.4325e+06	4.81629
5.46387e+06	4.81767
5.49541e+06	4.81904
5.52713e+06	4.82042
5.55904e+06	4.82178
5.59114e+06	4.82316
5.62341e+06	4.82453
5.65588e+06	4.82589
5.68853e+06	4.82726
5.72137e+06	4.82863
5.7544e+06	4.83
5.78762e+06	4.83136
5.82103e+06	4.83273
5.85464e+06	4.83409
5.88844e+06	4.83545
5.92243e+06	4.83681
5.95662e+06	4.83818
5.99101e+06	4.83953
6.0256e+06	4.84089
6.06038e+06	4.84225
6.09537e+06	4.84361
6.13056e+06	4.84496
6.16595e+06	4.84631
6.20155e+06	4.84767
6.23735e+06	4.84902
6.27336e+06	4.85037
6.30957e+06	4.85172
6.346e+06	4.85307
6.38263e+06	4.85442
6.41948e+06	4.85577
6.45654e+06	4.85711
6.49382e+06	4.85846
6.53131e+06	4.85981
6.56901e+06	4.86115
6.60693e+06	4.86249
6.64508e+06	4.86383
6.68344e+06	4.86517
6.72202e+06	4.86651
6.76083e+06	4.86785
6.79986e+06	4.86919
6.83912e+06	4.87053
6.8786e+06	4.87186
6.91831e+06	4.87319
6.95825e+06	4.87453
6.99842e+06	4.87586
7.03882e+06	4.87719
7.07946e+06	4.87852
7.12033e+06	4.87985
7.16143e+06	4.88118
7.20278e+06	4.88251
7.24436e+06	4.88384
7.28618e+06	4.88516
7.32825e+06	4.88649
7.37055e+06	4.88781
7.4131e+06	4.88913
7.4559e+06	4.89045
7.49894e+06	4.89177
7.54223e+06	4.89309
7.58578e+06	4.89441
7.62957e+06	4.89573
7.67361e+06	4.89705
7.71792e+06	4.89836
7.76247e+06	4.89967
7.80728e+06	4.90099
7.85236e+06	4.9023
7.89769e+06	4.90361
7.94328e+06	4.90492
7.98914e+06	4.90623
8.03526e+06	4.90754
8.08165e+06	4.90884
8.12831e+06	4.91015
8.17523e+06	4.91146
8.22243e+06	4.91276
8.2699e+06	4.91406
8.31764e+06	4.91536
8.36566e+06	4.91666
8.41395e+06	4.91796
8.46253e+06	4.91926
8.51138e+06	4.92056
8.56052e+06	4.92186
8.60994e+06	4.92315
8.65964e+06	4.92445
8.70964e+06	4.92574
8.75992e+06	4.92703
8.81049e+06	4.92832
8.86135e+06	4.92961
8.91251e+06	4.93091
8.96396e+06	4.93219
9.01571e+06	4.93348
9.06776e+06	4.93477
9.12011e+06	4.93605
9.17276e+06	4.93734
9.22571e+06	4.93862
9.27897e+06	4.9399
9.33254e+06	4.94118
9.38642e+06	4.94246
9.44061e+06	4.94374
9.49511e+06	4.94502
9.54993e+06	4.94629
9.60506e+06	4.94757
9.66051e+06	4.94884
9.71628e+06	4.95012
9.77237e+06	4.95139
9.82879e+06	4.95266
9.88553e+06	4.95393
9.9426e+06	4.9552
1e+07	4.95647
