Stopping power dEdx from Ionisation for mu+ Z = 0 in G4_TISSUE_SOFT_ICRP, process name: muIoni
E [MeV]	dEdx [MeV/mm]
0.001	51.4809
0.00100577	51.6293
0.00101158	51.7781
0.00101742	51.9274
0.00102329	52.0771
0.0010292	52.2272
0.00103514	52.3777
0.00104112	52.5287
0.00104713	52.6801
0.00105317	52.8319
0.00105925	52.9842
0.00106537	53.1369
0.00107152	53.2901
0.00107771	53.4437
0.00108393	53.5977
0.00109018	53.7522
0.00109648	53.9072
0.00110281	54.0625
0.00110917	54.2184
0.00111558	54.3746
0.00112202	54.5314
0.0011285	54.6886
0.00113501	54.8439
0.00114156	54.9815
0.00114815	55.1193
0.00115478	55.2574
0.00116145	55.3957
0.00116815	55.5344
0.0011749	55.6733
0.00118168	55.8125
0.0011885	55.952
0.00119536	56.0918
0.00120226	56.2319
0.00120921	56.3722
0.00121619	56.5128
0.00122321	56.6537
0.00123027	56.7949
0.00123737	56.9363
0.00124451	57.078
0.0012517	57.22
0.00125893	57.3623
0.00126619	57.5049
0.0012735	57.6477
0.00128086	57.7908
0.00128825	57.9342
0.00129569	58.0779
0.00130317	58.2218
0.00131069	58.366
0.00131826	58.5105
0.00132587	58.6552
0.00133352	58.8002
0.00134122	58.9455
0.00134896	59.0911
0.00135675	59.2369
0.00136458	59.383
0.00137246	59.5294
0.00138038	59.6761
0.00138835	59.823
0.00139637	59.9702
0.00140443	60.1176
0.00141254	60.2653
0.00142069	60.4133
0.00142889	60.5616
0.00143714	60.7101
0.00144544	60.8588
0.00145378	61.0079
0.00146218	61.1572
0.00147062	61.3067
0.00147911	61.4566
0.00148765	61.6067
0.00149624	61.757
0.00150487	61.9076
0.00151356	62.0585
0.0015223	62.2096
0.00153109	62.3609
0.00153993	62.5126
0.00154882	62.6644
0.00155776	62.8166
0.00156675	62.969
0.0015758	63.1216
0.00158489	63.2745
0.00159404	63.4276
0.00160325	63.581
0.0016125	63.7346
0.00162181	63.8885
0.00163117	64.0426
0.00164059	64.197
0.00165006	64.3516
0.00165959	64.5064
0.00166917	64.6615
0.0016788	64.8168
0.0016885	64.9724
0.00169824	65.1282
0.00170805	65.2842
0.00171791	65.4405
0.00172783	65.597
0.0017378	65.7537
0.00174783	65.9107
0.00175792	66.0679
0.00176807	66.2253
0.00177828	66.383
0.00178855	66.5408
0.00179887	66.6989
0.00180926	66.8572
0.0018197	67.0158
0.00183021	67.1745
0.00184077	67.3335
0.0018514	67.4926
0.00186209	67.652
0.00187284	67.8116
0.00188365	67.9714
0.00189452	68.1315
0.00190546	68.2917
0.00191646	68.4521
0.00192752	68.6128
0.00193865	68.7736
0.00194984	68.9346
0.0019611	69.0959
0.00197242	69.2573
0.00198381	69.4189
0.00199526	69.5807
0.00200678	69.7427
0.00201837	69.9049
0.00203002	70.0673
0.00204174	70.2298
0.00205353	70.3926
0.00206538	70.5555
0.0020773	70.7186
0.0020893	70.8819
0.00210136	71.0453
0.00211349	71.2089
0.00212569	71.3727
0.00213796	71.5366
0.0021503	71.7007
0.00216272	71.865
0.0021752	72.0294
0.00218776	72.194
0.00220039	72.3588
0.00221309	72.5237
0.00222587	72.6887
0.00223872	72.8539
0.00225165	73.0192
0.00226464	73.1847
0.00227772	73.3503
0.00229087	73.516
0.00230409	73.6819
0.00231739	73.8479
0.00233077	74.014
0.00234423	74.1803
0.00235776	74.3467
0.00237137	74.5131
0.00238506	74.6798
0.00239883	74.8465
0.00241268	75.0133
0.00242661	75.1802
0.00244062	75.3473
0.00245471	75.5144
0.00246888	75.6817
0.00248313	75.849
0.00249747	76.0164
0.00251189	76.1839
0.00252639	76.3515
0.00254097	76.5192
0.00255564	76.687
0.0025704	76.8548
0.00258523	77.0227
0.00260016	77.1906
0.00261517	77.3587
0.00263027	77.5268
0.00264545	77.6949
0.00266073	77.8631
0.00267609	78.0313
0.00269153	78.1996
0.00270707	78.368
0.0027227	78.5363
0.00273842	78.7047
0.00275423	78.8732
0.00277013	79.0416
0.00278612	79.2101
0.00280221	79.3786
0.00281838	79.5471
0.00283465	79.7156
0.00285102	79.8842
0.00286748	80.0527
0.00288403	80.2212
0.00290068	80.3897
0.00291743	80.5582
0.00293427	80.7267
0.00295121	80.8952
0.00296825	81.0636
0.00298538	81.232
0.00300262	81.4004
0.00301995	81.5688
0.00303739	81.7371
0.00305492	81.9053
0.00307256	82.0735
0.0030903	82.2417
0.00310814	82.4097
0.00312608	82.5778
0.00314413	82.7457
0.00316228	82.9136
0.00318053	83.0814
0.0031989	83.2491
0.00321736	83.4167
0.00323594	83.5842
0.00325462	83.7516
0.00327341	83.9189
0.0032923	84.0861
0.00331131	84.2532
0.00333043	84.4201
0.00334965	84.587
0.00336899	84.7536
0.00338844	84.9202
0.003408	85.0866
0.00342768	85.2529
0.00344747	85.419
0.00346737	85.5849
0.00348739	85.7507
0.00350752	85.9163
0.00352777	86.0817
0.00354813	86.247
0.00356862	86.4121
0.00358922	86.5769
0.00360994	86.7416
0.00363078	86.906
0.00365174	87.0703
0.00367282	87.2343
0.00369403	87.3981
0.00371535	87.5617
0.0037368	87.725
0.00375837	87.8881
0.00378007	88.0509
0.00380189	88.2135
0.00382384	88.3758
0.00384592	88.5379
0.00386812	88.6997
0.00389045	88.8612
0.00391291	89.0224
0.0039355	89.1833
0.00395822	89.3439
0.00398107	89.5042
0.00400405	89.6642
0.00402717	89.8239
0.00405042	89.9832
0.0040738	90.1422
0.00409732	90.3009
0.00412098	90.4592
0.00414477	90.6172
0.00416869	90.7748
0.00419276	90.932
0.00421697	91.0889
0.00424131	91.2453
0.0042658	91.4014
0.00429042	91.5571
0.00431519	91.7124
0.0043401	91.8673
0.00436516	92.0218
0.00439036	92.1758
0.0044157	92.3294
0.0044412	92.4826
0.00446684	92.6353
0.00449262	92.7876
0.00451856	92.9394
0.00454465	93.0854
0.00457088	93.2176
0.00459727	93.3491
0.00462381	93.4799
0.0046505	93.61
0.00467735	93.7394
0.00470435	93.868
0.00473151	93.9959
0.00475883	94.123
0.0047863	94.2494
0.00481393	94.375
0.00484172	94.4998
0.00486968	94.6238
0.00489779	94.747
0.00492606	94.8694
0.0049545	94.9909
0.0049831	95.1117
0.00501187	95.2315
0.00504081	95.3506
0.00506991	95.4687
0.00509918	95.586
0.00512861	95.7024
0.00515822	95.818
0.005188	95.9326
0.00521795	96.0463
0.00524807	96.159
0.00527837	96.2709
0.00530884	96.3818
0.00533949	96.4917
0.00537032	96.6007
0.00540132	96.7087
0.0054325	96.8157
0.00546387	96.9217
0.00549541	97.0267
0.00552713	97.1307
0.00555904	97.2336
0.00559114	97.3355
0.00562341	97.4364
0.00565588	97.5362
0.00568853	97.6349
0.00572137	97.7326
0.0057544	97.8292
0.00578762	97.9246
0.00582103	98.019
0.00585464	98.1122
0.00588844	98.2043
0.00592243	98.2953
0.00595662	98.3851
0.00599101	98.4737
0.0060256	98.5612
0.00606038	98.6475
0.00609537	98.7326
0.00613056	98.8165
0.00616595	98.8992
0.00620155	98.9806
0.00623735	99.0608
0.00627336	99.1398
0.00630957	99.2175
0.006346	99.294
0.00638263	99.3692
0.00641948	99.443
0.00645654	99.5156
0.00649382	99.5869
0.00653131	99.6569
0.00656901	99.7255
0.00660693	99.7928
0.00664508	99.8588
0.00668344	99.9234
0.00672202	99.9866
0.00676083	100.048
0.00679986	100.109
0.00683912	100.168
0.0068786	100.226
0.00691831	100.282
0.00695825	100.337
0.00699842	100.39
0.00703882	100.442
0.00707946	100.493
0.00712033	100.542
0.00716143	100.589
0.00720278	100.635
0.00724436	100.68
0.00728618	100.723
0.00732825	100.765
0.00737055	100.805
0.0074131	100.843
0.0074559	100.88
0.00749894	100.916
0.00754223	100.95
0.00758578	100.982
0.00762957	101.013
0.00767361	101.042
0.00771792	101.07
0.00776247	101.096
0.00780728	101.12
0.00785236	101.143
0.00789769	101.165
0.00794328	101.184
0.00798914	101.202
0.00803526	101.218
0.00808165	101.233
0.00812831	101.246
0.00817523	101.258
0.00822243	101.267
0.0082699	101.275
0.00831764	101.282
0.00836566	101.286
0.00841395	101.289
0.00846253	101.291
0.00851138	101.29
0.00856052	101.288
0.00860994	101.284
0.00865964	101.279
0.00870964	101.271
0.00875992	101.262
0.00881049	101.251
0.00886135	101.239
0.00891251	101.224
0.00896396	101.208
0.00901571	101.191
0.00906776	101.171
0.00912011	101.15
0.00917276	101.126
0.00922571	101.102
0.00927897	101.075
0.00933254	101.046
0.00938642	101.016
0.00944061	100.984
0.00949511	100.95
0.00954993	100.914
0.00960506	100.877
0.00966051	100.838
0.00971628	100.797
0.00977237	100.754
0.00982879	100.709
0.00988553	100.662
0.0099426	100.614
0.01	100.564
0.0100577	100.512
0.0101158	100.458
0.0101742	100.402
0.0102329	100.345
0.010292	100.285
0.0103514	100.224
0.0104112	100.161
0.0104713	100.096
0.0105317	100.03
0.0105925	99.9611
0.0106537	99.8908
0.0107152	99.8186
0.0107771	99.7446
0.0108393	99.6688
0.0109018	99.5912
0.0109648	99.5117
0.0110281	99.4304
0.0110917	99.3473
0.0111558	99.2624
0.0112202	99.1756
0.011285	99.087
0.0113501	98.9966
0.0114156	98.9044
0.0114815	98.8104
0.0115478	98.7146
0.0116145	98.617
0.0116815	98.5175
0.011749	98.4163
0.0118168	98.3133
0.011885	98.2085
0.0119536	98.1019
0.0120226	97.9936
0.0120921	97.8835
0.0121619	97.7716
0.0122321	97.6579
0.0123027	97.5425
0.0123737	97.4253
0.0124451	97.3064
0.012517	97.1857
0.0125893	97.0633
0.0126619	96.9392
0.012735	96.8134
0.0128086	96.6858
0.0128825	96.5566
0.0129569	96.4256
0.0130317	96.293
0.0131069	96.1586
0.0131826	96.0226
0.0132587	95.885
0.0133352	95.7456
0.0134122	95.6047
0.0134896	95.462
0.0135675	95.3178
0.0136458	95.1719
0.0137246	95.0244
0.0138038	94.8753
0.0138835	94.7246
0.0139637	94.5723
0.0140443	94.4185
0.0141254	94.2631
0.0142069	94.1061
0.0142889	93.9476
0.0143714	93.7876
0.0144544	93.626
0.0145378	93.4629
0.0146218	93.2984
0.0147062	93.1323
0.0147911	92.9648
0.0148765	92.7958
0.0149624	92.6254
0.0150487	92.4535
0.0151356	92.2802
0.015223	92.1055
0.0153109	91.9294
0.0153993	91.7519
0.0154882	91.5731
0.0155776	91.3929
0.0156675	91.2113
0.015758	91.0284
0.0158489	90.8442
0.0159404	90.6587
0.0160325	90.4718
0.016125	90.2838
0.0162181	90.0944
0.0163117	89.9038
0.0164059	89.712
0.0165006	89.519
0.0165959	89.3247
0.0166917	89.1293
0.016788	88.9327
0.016885	88.7349
0.0169824	88.536
0.0170805	88.336
0.0171791	88.1349
0.0172783	87.9327
0.017378	87.7294
0.0174783	87.525
0.0175792	87.3196
0.0176807	87.1131
0.0177828	86.9057
0.0178855	86.6972
0.0179887	86.4878
0.0180926	86.2774
0.018197	86.066
0.0183021	85.8537
0.0184077	85.6405
0.018514	85.4264
0.0186209	85.2115
0.0187284	84.9956
0.0188365	84.7789
0.0189452	84.5614
0.0190546	84.343
0.0191646	84.1239
0.0192752	83.904
0.0193865	83.6833
0.0194984	83.4619
0.019611	83.2397
0.0197242	83.0168
0.0198381	82.7932
0.0199526	82.569
0.0200678	82.3441
0.0201837	82.1185
0.0203002	81.8923
0.0204174	81.6655
0.0205353	81.4381
0.0206538	81.2102
0.020773	80.9816
0.020893	80.7526
0.0210136	80.523
0.0211349	80.2929
0.0212569	80.0623
0.0213796	79.8312
0.021503	79.5997
0.0216272	79.3677
0.021752	79.1353
0.0218776	78.9025
0.0220039	78.6693
0.0221309	78.4357
0.0222587	78.2018
0.0223872	77.9675
0.0225165	77.7329
0.0226464	77.498
0.0227772	77.2628
0.0229087	77.0273
0.0230409	76.7916
0.0231739	76.5556
0.0233077	76.3194
0.0234423	76.0829
0.0235776	75.8463
0.0237137	75.6095
0.0238506	75.3725
0.0239883	75.1354
0.0241268	74.8981
0.0242661	74.6607
0.0244062	74.4232
0.0245471	74.1857
0.0246888	73.948
0.0248313	73.7103
0.0249747	73.4725
0.0251189	73.2347
0.0252639	72.9969
0.0254097	72.7591
0.0255564	72.5213
0.025704	72.2835
0.0258523	72.0458
0.0260016	71.8081
0.0261517	71.5704
0.0263027	71.3329
0.0264545	71.0954
0.0266073	70.8581
0.0267609	70.6209
0.0269153	70.3838
0.0270707	70.1468
0.027227	69.91
0.0273842	69.6734
0.0275423	69.437
0.0277013	69.2007
0.0278612	68.9647
0.0280221	68.7288
0.0281838	68.4932
0.0283465	68.2579
0.0285102	68.0228
0.0286748	67.7879
0.0288403	67.5534
0.0290068	67.3191
0.0291743	67.0851
0.0293427	66.8514
0.0295121	66.618
0.0296825	66.385
0.0298538	66.1523
0.0300262	65.9199
0.0301995	65.688
0.0303739	65.4563
0.0305492	65.2251
0.0307256	64.9942
0.030903	64.7637
0.0310814	64.5336
0.0312608	64.304
0.0314413	64.0747
0.0316228	63.8459
0.0318053	63.6175
0.031989	63.3896
0.0321736	63.1621
0.0323594	62.9351
0.0325462	62.7086
0.0327341	62.4825
0.032923	62.2569
0.0331131	62.0318
0.0333043	61.8072
0.0334965	61.5831
0.0336899	61.3595
0.0338844	61.1364
0.03408	60.9138
0.0342768	60.6918
0.0344747	60.4703
0.0346737	60.2494
0.0348739	60.0289
0.0350752	59.8091
0.0352777	59.5898
0.0354813	59.3711
0.0356862	59.1529
0.0358922	58.9353
0.0360994	58.7183
0.0363078	58.5018
0.0365174	58.286
0.0367282	58.0707
0.0369403	57.8561
0.0371535	57.642
0.037368	57.4285
0.0375837	57.2157
0.0378007	57.0034
0.0380189	56.7918
0.0382384	56.5808
0.0384592	56.3704
0.0386812	56.1606
0.0389045	55.9514
0.0391291	55.7429
0.039355	55.535
0.0395822	55.3278
0.0398107	55.1212
0.0400405	54.9152
0.0402717	54.7099
0.0405042	54.5052
0.040738	54.3011
0.0409732	54.0977
0.0412098	53.895
0.0414477	53.6929
0.0416869	53.4914
0.0419276	53.2906
0.0421697	53.0905
0.0424131	52.891
0.042658	52.6922
0.0429042	52.494
0.0431519	52.2965
0.043401	52.0996
0.0436516	51.9034
0.0439036	51.7079
0.044157	51.513
0.044412	51.3188
0.0446684	51.1253
0.0449262	50.9324
0.0451856	50.7402
0.0454465	50.5487
0.0457088	50.3578
0.0459727	50.1675
0.0462381	49.978
0.046505	49.7891
0.0467735	49.6008
0.0470435	49.4132
0.0473151	49.2263
0.0475883	49.0401
0.047863	48.8545
0.0481393	48.6695
0.0484172	48.4853
0.0486968	48.3016
0.0489779	48.1187
0.0492606	47.9364
0.049545	47.7547
0.049831	47.5737
0.0501187	47.3934
0.0504081	47.2137
0.0506991	47.0346
0.0509918	46.8563
0.0512861	46.6785
0.0515822	46.5014
0.05188	46.325
0.0521795	46.1491
0.0524807	45.974
0.0527837	45.7995
0.0530884	45.6256
0.0533949	45.4523
0.0537032	45.2797
0.0540132	45.1077
0.054325	44.9364
0.0546387	44.7657
0.0549541	44.5956
0.0552713	44.4261
0.0555904	44.2573
0.0559114	44.0891
0.0562341	43.9215
0.0565588	43.7545
0.0568853	43.5881
0.0572137	43.4224
0.057544	43.2573
0.0578762	43.0928
0.0582103	42.9289
0.0585464	42.7656
0.0588844	42.6029
0.0592243	42.4408
0.0595662	42.2793
0.0599101	42.1184
0.060256	41.9581
0.0606038	41.7984
0.0609537	41.6393
0.0613056	41.4807
0.0616595	41.3228
0.0620155	41.1654
0.0623735	41.0087
0.0627336	40.8525
0.0630957	40.6969
0.06346	40.5418
0.0638263	40.3874
0.0641948	40.2335
0.0645654	40.0801
0.0649382	39.9274
0.0653131	39.7752
0.0656901	39.6235
0.0660693	39.4725
0.0664508	39.322
0.0668344	39.172
0.0672202	39.0226
0.0676083	38.8737
0.0679986	38.7254
0.0683912	38.5776
0.068786	38.4304
0.0691831	38.2837
0.0695825	38.1375
0.0699842	37.9919
0.0703882	37.8468
0.0707946	37.7023
0.0712033	37.5583
0.0716143	37.4148
0.0720278	37.2718
0.0724436	37.1293
0.0728618	36.9874
0.0732825	36.846
0.0737055	36.7051
0.074131	36.5647
0.074559	36.4248
0.0749894	36.2854
0.0754223	36.1466
0.0758578	36.0082
0.0762957	35.8703
0.0767361	35.733
0.0771792	35.5961
0.0776247	35.4597
0.0780728	35.3238
0.0785236	35.1884
0.0789769	35.0535
0.0794328	34.9191
0.0798914	34.7851
0.0803526	34.6517
0.0808165	34.5187
0.0812831	34.3862
0.0817523	34.2542
0.0822243	34.1226
0.082699	33.9915
0.0831764	33.8609
0.0836566	33.7307
0.0841395	33.601
0.0846253	33.4718
0.0851138	33.343
0.0856052	33.2147
0.0860994	33.0869
0.0865964	32.9594
0.0870964	32.8325
0.0875992	32.706
0.0881049	32.5799
0.0886135	32.4543
0.0891251	32.3291
0.0896396	32.2044
0.0901571	32.0801
0.0906776	31.9563
0.0912011	31.8329
0.0917276	31.7099
0.0922571	31.5873
0.0927897	31.4652
0.0933254	31.3435
0.0938642	31.2223
0.0944061	31.1014
0.0949511	30.981
0.0954993	30.861
0.0960506	30.7415
0.0966051	30.6223
0.0971628	30.5036
0.0977237	30.3852
0.0982879	30.2673
0.0988553	30.1498
0.099426	30.0327
0.1	29.916
0.100577	29.7998
0.101158	29.6839
0.101742	29.5684
0.102329	29.4533
0.10292	29.3387
0.103514	29.2244
0.104112	29.1105
0.104713	28.997
0.105317	28.8839
0.105925	28.7712
0.106537	28.6589
0.107152	28.547
0.107771	28.4355
0.108393	28.3243
0.109018	28.2135
0.109648	28.1032
0.110281	27.9932
0.110917	27.8835
0.111558	27.7743
0.112202	27.6654
0.11285	27.5569
0.113501	27.4488
0.114156	27.3411
0.114815	27.2337
0.115478	27.1267
0.116145	27.02
0.116815	26.9138
0.11749	26.8078
0.118168	26.7023
0.11885	26.5971
0.119536	26.4923
0.120226	26.3878
0.120921	26.2838
0.121619	26.18
0.122321	26.0766
0.123027	25.9736
0.123737	25.8709
0.124451	25.7686
0.12517	25.6666
0.125893	25.565
0.126619	25.4637
0.12735	25.3628
0.128086	25.2622
0.128825	25.162
0.129569	25.0621
0.130317	24.9626
0.131069	24.8634
0.131826	24.7645
0.132587	24.666
0.133352	24.5678
0.134122	24.47
0.134896	24.3725
0.135675	24.2753
0.136458	24.1784
0.137246	24.0819
0.138038	23.9858
0.138835	23.8899
0.139637	23.7944
0.140443	23.6992
0.141254	23.6044
0.142069	23.5098
0.142889	23.4156
0.143714	23.3218
0.144544	23.2282
0.145378	23.135
0.146218	23.0421
0.147062	22.9495
0.147911	22.8572
0.148765	22.7653
0.149624	22.6736
0.150487	22.5823
0.151356	22.4913
0.15223	22.4006
0.153109	22.3103
0.153993	22.2202
0.154882	22.1305
0.155776	22.041
0.156675	21.9519
0.15758	21.8631
0.158489	21.7746
0.159404	21.6864
0.160325	21.5985
0.16125	21.5109
0.162181	21.4236
0.163117	21.3366
0.164059	21.25
0.165006	21.1636
0.165959	21.0775
0.166917	20.9917
0.16788	20.9063
0.16885	20.8211
0.169824	20.7362
0.170805	20.6516
0.171791	20.5673
0.172783	20.4834
0.17378	20.3997
0.174783	20.3163
0.175792	20.2331
0.176807	20.1503
0.177828	20.0678
0.178855	19.9856
0.179887	19.9036
0.180926	19.822
0.18197	19.7406
0.183021	19.6595
0.184077	19.5787
0.18514	19.4982
0.186209	19.418
0.187284	19.338
0.188365	19.2584
0.189452	19.179
0.190546	19.0999
0.191646	19.0211
0.192752	18.9425
0.193865	18.8643
0.194984	18.7863
0.19611	18.7086
0.197242	18.6312
0.198381	18.554
0.199526	18.4772
0.200678	18.3984
0.201837	18.3201
0.203002	18.2405
0.204174	18.1611
0.205353	18.0821
0.206538	18.0034
0.20773	17.925
0.20893	17.845
0.210136	17.7673
0.211349	17.6898
0.212569	17.6126
0.213796	17.5357
0.21503	17.4592
0.216272	17.3831
0.21752	17.3072
0.218776	17.2316
0.220039	17.1562
0.221309	17.0812
0.222587	17.0065
0.223872	16.9321
0.225165	16.8579
0.226464	16.7841
0.227772	16.7106
0.229087	16.6373
0.230409	16.5644
0.231739	16.4918
0.233077	16.4195
0.234423	16.3484
0.235776	16.2766
0.237137	16.2052
0.238506	16.134
0.239883	16.0631
0.241268	15.9926
0.242661	15.9223
0.244062	15.8522
0.245471	15.7825
0.246888	15.7131
0.248313	15.6439
0.249747	15.575
0.251189	15.5085
0.252639	15.4402
0.254097	15.3727
0.255564	15.3049
0.25704	15.2375
0.258523	15.1702
0.260016	15.1033
0.261517	15.0366
0.263027	14.9702
0.264545	14.9041
0.266073	14.8383
0.267609	14.7727
0.269153	14.7074
0.270707	14.6424
0.27227	14.5776
0.273842	14.5131
0.275423	14.4574
0.277013	14.3933
0.278612	14.3295
0.280221	14.266
0.281838	14.2027
0.283465	14.1112
0.285102	14.0506
0.286748	13.9877
0.288403	13.925
0.290068	13.8626
0.291743	13.8005
0.293427	13.7387
0.295121	13.6772
0.296825	13.6159
0.298538	13.5549
0.300262	13.4942
0.301995	13.4336
0.303739	13.3734
0.305492	13.3134
0.307256	13.2536
0.30903	13.1941
0.310814	13.1348
0.312608	13.0758
0.314413	13.0171
0.316228	12.9585
0.318053	12.9003
0.31989	12.8422
0.321736	12.7844
0.323594	12.7269
0.325462	12.6696
0.327341	12.6125
0.32923	12.5557
0.331131	12.4991
0.333043	12.4427
0.334965	12.3866
0.336899	12.3385
0.338844	12.2828
0.3408	12.2274
0.342768	12.1722
0.344747	12.1172
0.346737	12.0624
0.348739	12.0079
0.350752	11.9536
0.352777	11.8995
0.354813	11.8457
0.356862	11.7921
0.358922	11.7387
0.360994	11.6855
0.363078	11.6326
0.365174	11.5799
0.367282	11.5274
0.369403	11.4751
0.371535	11.4231
0.37368	11.3713
0.375837	11.3197
0.378007	11.2683
0.380189	11.2171
0.382384	11.1667
0.384592	11.1159
0.386812	11.0654
0.389045	11.0151
0.391291	10.965
0.39355	10.9152
0.395822	10.8656
0.398107	10.8173
0.400405	10.7691
0.402717	10.7212
0.405042	10.6735
0.40738	10.6259
0.409732	10.5786
0.412098	10.5314
0.414477	10.4844
0.416869	10.4376
0.419276	10.391
0.421697	10.3446
0.424131	10.2984
0.42658	10.2524
0.429042	10.2065
0.431519	10.1609
0.43401	10.1154
0.436516	10.0701
0.439036	10.025
0.44157	9.98008
0.44412	9.93534
0.446684	9.89079
0.449262	9.84642
0.451856	9.80224
0.454465	9.75824
0.457088	9.71442
0.459727	9.67077
0.462381	9.62997
0.46505	9.58664
0.467735	9.5435
0.470435	9.50053
0.473151	9.45773
0.475883	9.41512
0.47863	9.37269
0.481393	9.33043
0.484172	9.28834
0.486968	9.24644
0.489779	9.2047
0.492606	9.16314
0.49545	9.12176
0.49831	9.08055
0.501187	9.03952
0.504081	9.0048
0.506991	8.96403
0.509918	8.92344
0.512861	8.88302
0.515822	8.84277
0.5188	8.80269
0.521795	8.76278
0.524807	8.72304
0.527837	8.68347
0.530884	8.64407
0.533949	8.60483
0.537032	8.56576
0.540132	8.52686
0.54325	8.48812
0.546387	8.44955
0.549541	8.41114
0.552713	8.3729
0.555904	8.33482
0.559114	8.29691
0.562341	8.25916
0.565588	8.22156
0.568853	8.18414
0.572137	8.14686
0.57544	8.10975
0.578762	8.0728
0.582103	8.03601
0.585464	7.99937
0.588844	7.9629
0.592243	7.92658
0.595662	7.89041
0.599101	7.85441
0.60256	7.81856
0.606038	7.78287
0.609537	7.74733
0.613056	7.71194
0.616595	7.6767
0.620155	7.64162
0.623735	7.60669
0.627336	7.57192
0.630957	7.53729
0.6346	7.50281
0.638263	7.46864
0.641948	7.43446
0.645654	7.40043
0.649382	7.36811
0.653131	7.33435
0.656901	7.30074
0.660693	7.26728
0.664508	7.23395
0.668344	7.20076
0.672202	7.16774
0.676083	7.13485
0.679986	7.10212
0.683912	7.06952
0.68786	7.03706
0.691831	7.00475
0.695825	6.97257
0.699842	6.94054
0.703882	6.90865
0.707946	6.8769
0.712033	6.84529
0.716143	6.81382
0.720278	6.78248
0.724436	6.75129
0.728618	6.72023
0.732825	6.68931
0.737055	6.65852
0.74131	6.62787
0.74559	6.59736
0.749894	6.56698
0.754223	6.53673
0.758578	6.50662
0.762957	6.47664
0.767361	6.4468
0.771792	6.41708
0.776247	6.3875
0.780728	6.35805
0.785236	6.32873
0.789769	6.29954
0.794328	6.27048
0.798914	6.24155
0.803526	6.21275
0.808165	6.18407
0.812831	6.15553
0.817523	6.1271
0.822243	6.09881
0.82699	6.07064
0.831764	6.0426
0.836566	6.01468
0.841395	5.98688
0.846253	5.96114
0.851138	5.93356
0.856052	5.9061
0.860994	5.87877
0.865964	5.85155
0.870964	5.82446
0.875992	5.79749
0.881049	5.77064
0.886135	5.74391
0.891251	5.7173
0.896396	5.69089
0.901571	5.66452
0.906776	5.63826
0.912011	5.61212
0.917276	5.5861
0.922571	5.5602
0.927897	5.53441
0.933254	5.50874
0.938642	5.48319
0.944061	5.45776
0.949511	5.43244
0.954993	5.40723
0.960506	5.38213
0.966051	5.35715
0.971628	5.33228
0.977237	5.30752
0.982879	5.28288
0.988553	5.25834
0.99426	5.23392
1	5.2096
1.00577	5.18539
1.01158	5.1613
1.01742	5.13731
1.02329	5.11343
1.0292	5.08966
1.03514	5.06599
1.04112	5.04244
1.04713	5.01898
1.05317	4.99564
1.05925	4.9724
1.06537	4.94926
1.07152	4.92623
1.07771	4.90331
1.08393	4.88048
1.09018	4.85776
1.09648	4.83515
1.10281	4.81263
1.10917	4.79022
1.11558	4.76791
1.12202	4.7457
1.1285	4.7236
1.13501	4.70159
1.14156	4.67968
1.14815	4.65787
1.15478	4.63616
1.16145	4.61455
1.16815	4.59304
1.1749	4.57163
1.18168	4.55031
1.1885	4.53024
1.19536	4.5091
1.20226	4.48805
1.20921	4.46711
1.21619	4.44626
1.22321	4.4255
1.23027	4.40483
1.23737	4.38426
1.24451	4.36379
1.2517	4.34341
1.25893	4.32312
1.26619	4.30292
1.2735	4.28282
1.28086	4.26281
1.28825	4.24289
1.29569	4.22306
1.30317	4.20333
1.31069	4.18368
1.31826	4.16412
1.32587	4.14465
1.33352	4.12528
1.34122	4.10599
1.34896	4.08679
1.35675	4.06768
1.36458	4.04865
1.37246	4.02972
1.38038	4.01087
1.38835	3.9921
1.39637	3.97343
1.40443	3.95484
1.41254	3.93633
1.42069	3.91791
1.42889	3.89958
1.43714	3.88133
1.44544	3.86316
1.45378	3.84508
1.46218	3.82708
1.47062	3.80917
1.47911	3.79133
1.48765	3.77358
1.49624	3.75591
1.50487	3.73833
1.51356	3.72082
1.5223	3.7034
1.53109	3.68605
1.53993	3.66879
1.54882	3.6516
1.55776	3.6345
1.56675	3.61747
1.5758	3.60053
1.58489	3.58366
1.59404	3.56687
1.60325	3.55016
1.6125	3.53352
1.62181	3.51697
1.63117	3.50049
1.64059	3.48408
1.65006	3.46776
1.65959	3.4515
1.66917	3.43533
1.6788	3.41923
1.6885	3.4032
1.69824	3.38724
1.70805	3.37137
1.71791	3.35557
1.72783	3.33984
1.7378	3.32419
1.74783	3.30861
1.75792	3.2931
1.76807	3.27767
1.77828	3.2623
1.78855	3.24701
1.79887	3.23179
1.80926	3.21664
1.8197	3.20156
1.83021	3.18655
1.84077	3.17162
1.8514	3.15675
1.86209	3.14195
1.87284	3.12722
1.88365	3.11255
1.89452	3.09796
1.90546	3.08344
1.91646	3.06898
1.92752	3.05459
1.93865	3.04027
1.94984	3.02601
1.9611	3.01182
1.97242	2.9977
1.98381	2.98364
1.99526	2.96965
2.00678	2.95573
2.01837	2.94187
2.03002	2.92807
2.04174	2.91434
2.05353	2.90067
2.06538	2.88707
2.0773	2.87353
2.0893	2.86006
2.10136	2.84665
2.11349	2.8333
2.12569	2.82001
2.13796	2.80679
2.1503	2.79363
2.16272	2.78053
2.1752	2.76749
2.18776	2.75451
2.20039	2.74159
2.21309	2.72874
2.22587	2.71594
2.23872	2.70321
2.25165	2.69053
2.26464	2.67792
2.27772	2.66536
2.29087	2.65287
2.30409	2.64043
2.31739	2.62805
2.33077	2.61573
2.34423	2.60347
2.35776	2.59126
2.37137	2.57912
2.38506	2.56703
2.39883	2.55499
2.41268	2.54302
2.42661	2.5311
2.44062	2.51924
2.45471	2.50743
2.46888	2.49568
2.48313	2.48398
2.49747	2.47234
2.51189	2.46076
2.52639	2.44923
2.54097	2.43775
2.55564	2.42633
2.5704	2.41497
2.58523	2.40365
2.60016	2.39239
2.61517	2.38119
2.63027	2.37003
2.64545	2.35893
2.66073	2.34789
2.67609	2.33689
2.69153	2.32595
2.70707	2.31506
2.7227	2.30422
2.73842	2.29343
2.75423	2.28269
2.77013	2.27201
2.78612	2.26137
2.80221	2.25079
2.81838	2.24025
2.83465	2.22977
2.85102	2.21934
2.86748	2.20895
2.88403	2.19862
2.90068	2.18833
2.91743	2.17809
2.93427	2.16791
2.95121	2.15777
2.96825	2.14768
2.98538	2.13764
3.00262	2.12764
3.01995	2.1177
3.03739	2.1078
3.05492	2.09794
3.07256	2.08814
3.0903	2.07838
3.10814	2.06867
3.12608	2.05901
3.14413	2.04939
3.16228	2.03981
3.18053	2.03029
3.1989	2.02081
3.21736	2.01137
3.23594	2.00198
3.25462	1.99263
3.27341	1.98333
3.2923	1.97408
3.31131	1.96486
3.33043	1.9557
3.34965	1.94657
3.36899	1.93749
3.38844	1.92845
3.408	1.91946
3.42768	1.91051
3.44747	1.9016
3.46737	1.89274
3.48739	1.88392
3.50752	1.87514
3.52777	1.8664
3.54813	1.8577
3.56862	1.84905
3.58922	1.84044
3.60994	1.83187
3.63078	1.82334
3.65174	1.81485
3.67282	1.80641
3.69403	1.798
3.71535	1.78963
3.7368	1.78131
3.75837	1.77302
3.78007	1.76478
3.80189	1.75657
3.82384	1.7484
3.84592	1.74028
3.86812	1.73219
3.89045	1.72414
3.91291	1.71613
3.9355	1.70816
3.95822	1.70023
3.98107	1.69233
4.00405	1.68448
4.02717	1.67666
4.05042	1.66888
4.0738	1.66114
4.09732	1.65343
4.12098	1.64576
4.14477	1.63813
4.16869	1.63054
4.19276	1.62298
4.21697	1.61546
4.24131	1.60798
4.2658	1.60053
4.29042	1.59312
4.31519	1.58574
4.3401	1.5784
4.36516	1.5711
4.39036	1.56383
4.4157	1.5566
4.4412	1.5494
4.46684	1.54223
4.49262	1.53511
4.51856	1.52801
4.54465	1.52095
4.57088	1.51393
4.59727	1.50694
4.62381	1.49998
4.6505	1.49306
4.67735	1.48617
4.70435	1.47931
4.73151	1.47249
4.75883	1.4657
4.7863	1.45894
4.81393	1.45222
4.84172	1.44553
4.86968	1.43887
4.89779	1.43224
4.92606	1.42565
4.9545	1.41909
4.9831	1.41256
5.01187	1.40606
5.04081	1.3996
5.06991	1.39316
5.09918	1.38676
5.12861	1.38039
5.15822	1.37405
5.188	1.36774
5.21795	1.36146
5.24807	1.35522
5.27837	1.349
5.30884	1.34281
5.33949	1.33666
5.37032	1.33053
5.40132	1.32444
5.4325	1.31837
5.46387	1.31233
5.49541	1.30633
5.52713	1.30035
5.55904	1.2944
5.59114	1.28848
5.62341	1.28259
5.65588	1.27673
5.68853	1.2709
5.72137	1.2651
5.7544	1.25932
5.78762	1.25357
5.82103	1.24786
5.85464	1.24217
5.88844	1.2365
5.92243	1.23087
5.95662	1.22526
5.99101	1.21968
6.0256	1.21413
6.06038	1.20861
6.09537	1.20311
6.13056	1.19764
6.16595	1.1922
6.20155	1.18678
6.23735	1.18139
6.27336	1.17603
6.30957	1.17069
6.346	1.16538
6.38263	1.1601
6.41948	1.15484
6.45654	1.14961
6.49382	1.1444
6.53131	1.13922
6.56901	1.13407
6.60693	1.12894
6.64508	1.12383
6.68344	1.11875
6.72202	1.1137
6.76083	1.10867
6.79986	1.10367
6.83912	1.09869
6.8786	1.09373
6.91831	1.08881
6.95825	1.0839
6.99842	1.07902
7.03882	1.07416
7.07946	1.06933
7.12033	1.06452
7.16143	1.05974
7.20278	1.05498
7.24436	1.05024
7.28618	1.04552
7.32825	1.04083
7.37055	1.03617
7.4131	1.03152
7.4559	1.0269
7.49894	1.0223
7.54223	1.01773
7.58578	1.01318
7.62957	1.00865
7.67361	1.00414
7.71792	0.999655
7.76247	0.995193
7.80728	0.990753
7.85236	0.986335
7.89769	0.981939
7.94328	0.977565
7.98914	0.973213
8.03526	0.968882
8.08165	0.964574
8.12831	0.960286
8.17523	0.956021
8.22243	0.951776
8.2699	0.947553
8.31764	0.943351
8.36566	0.939169
8.41395	0.935009
8.46253	0.93087
8.51138	0.926751
8.56052	0.922653
8.60994	0.918575
8.65964	0.914518
8.70964	0.910481
8.75992	0.906465
8.81049	0.902468
8.86135	0.898492
8.91251	0.894535
8.96396	0.890599
9.01571	0.886682
9.06776	0.882785
9.12011	0.878907
9.17276	0.875049
9.22571	0.87121
9.27897	0.867391
9.33254	0.863591
9.38642	0.85981
9.44061	0.856048
9.49511	0.852305
9.54993	0.84858
9.60506	0.844875
9.66051	0.841188
9.71628	0.83752
9.77237	0.83387
9.82879	0.830239
9.88553	0.826626
9.9426	0.823031
10	0.819454
10.0577	0.815896
10.1158	0.812355
10.1742	0.808833
10.2329	0.805328
10.292	0.801841
10.3514	0.798371
10.4112	0.794919
10.4713	0.791485
10.5317	0.788067
10.5925	0.784668
10.6537	0.781285
10.7152	0.77792
10.7771	0.774571
10.8393	0.77124
10.9018	0.767926
10.9648	0.764628
11.0281	0.761347
11.0917	0.758083
11.1558	0.754835
11.2202	0.751604
11.285	0.748389
11.3501	0.745191
11.4156	0.742009
11.4815	0.738843
11.5478	0.735693
11.6145	0.73256
11.6815	0.729442
11.749	0.72634
11.8168	0.723254
11.885	0.720184
11.9536	0.717129
12.0226	0.71409
12.0921	0.711067
12.1619	0.708059
12.2321	0.705066
12.3027	0.702088
12.3737	0.699126
12.4451	0.696179
12.517	0.693247
12.5893	0.69033
12.6619	0.687428
12.735	0.684541
12.8086	0.681669
12.8825	0.678811
12.9569	0.675968
13.0317	0.67314
13.1069	0.670326
13.1826	0.667527
13.2587	0.664742
13.3352	0.661971
13.4122	0.659215
13.4896	0.656473
13.5675	0.653744
13.6458	0.65103
13.7246	0.64833
13.8038	0.645644
13.8835	0.642972
13.9637	0.640313
14.0443	0.637668
14.1254	0.635037
14.2069	0.632419
14.2889	0.629815
14.3714	0.627225
14.4544	0.624647
14.5378	0.622083
14.6218	0.619533
14.7062	0.616995
14.7911	0.614471
14.8765	0.61196
14.9624	0.609461
15.0487	0.606976
15.1356	0.604504
15.223	0.602044
15.3109	0.599597
15.3993	0.597163
15.4882	0.594742
15.5776	0.592333
15.6675	0.589936
15.758	0.587552
15.8489	0.585181
15.9404	0.582822
16.0325	0.580475
16.125	0.57814
16.2181	0.575818
16.3117	0.573508
16.4059	0.571209
16.5006	0.568923
16.5959	0.566649
16.6917	0.564387
16.788	0.562136
16.885	0.559897
16.9824	0.55767
17.0805	0.555455
17.1791	0.553251
17.2783	0.551059
17.378	0.548878
17.4783	0.546708
17.5792	0.544551
17.6807	0.542404
17.7828	0.540269
17.8855	0.538145
17.9887	0.536032
18.0926	0.53393
18.197	0.531839
18.3021	0.529759
18.4077	0.527691
18.514	0.525633
18.6209	0.523586
18.7284	0.52155
18.8365	0.519524
18.9452	0.51751
19.0546	0.515506
19.1646	0.513512
19.2752	0.511529
19.3865	0.509557
19.4984	0.507595
19.611	0.505644
19.7242	0.503702
19.8381	0.501771
19.9526	0.499851
20.0678	0.49794
20.1837	0.49604
20.3002	0.49415
20.4174	0.49227
20.5353	0.4904
20.6538	0.48854
20.773	0.48669
20.893	0.48485
21.0136	0.483019
21.1349	0.481198
21.2569	0.479388
21.3796	0.477586
21.503	0.475795
21.6272	0.474013
21.752	0.47224
21.8776	0.470477
22.0039	0.468724
22.1309	0.46698
22.2587	0.465245
22.3872	0.46352
22.5165	0.461804
22.6464	0.460097
22.7772	0.458399
22.9087	0.456711
23.0409	0.455031
23.1739	0.453361
23.3077	0.4517
23.4423	0.450047
23.5776	0.448404
23.7137	0.446769
23.8506	0.445144
23.9883	0.443527
24.1268	0.441919
24.2661	0.44032
24.4062	0.438729
24.5471	0.437147
24.6888	0.435573
24.8313	0.434009
24.9747	0.432452
25.1189	0.430905
25.2639	0.429365
25.4097	0.427834
25.5564	0.426312
25.704	0.424797
25.8523	0.423291
26.0016	0.421794
26.1517	0.420304
26.3027	0.418823
26.4545	0.417349
26.6073	0.415884
26.7609	0.414427
26.9153	0.412978
27.0707	0.411537
27.227	0.410104
27.3842	0.408678
27.5423	0.407261
27.7013	0.405851
27.8612	0.40445
28.0221	0.403056
28.1838	0.401669
28.3465	0.400291
28.5102	0.39892
28.6748	0.397556
28.8403	0.396201
29.0068	0.394852
29.1743	0.393511
29.3427	0.392178
29.5121	0.390852
29.6825	0.389534
29.8538	0.388223
30.0262	0.386919
30.1995	0.385622
30.3739	0.384333
30.5492	0.383051
30.7256	0.381776
30.903	0.380509
31.0814	0.379248
31.2608	0.377995
31.4413	0.376748
31.6228	0.375509
31.8053	0.374277
31.989	0.373051
32.1736	0.371833
32.3594	0.370621
32.5462	0.369417
32.7341	0.368219
32.923	0.367028
33.1131	0.365843
33.3043	0.364666
33.4965	0.363495
33.6899	0.36233
33.8844	0.361173
34.08	0.360022
34.2768	0.358878
34.4747	0.35774
34.6737	0.356608
34.8739	0.355483
35.0752	0.354365
35.2777	0.353253
35.4813	0.352148
35.6862	0.351048
35.8922	0.349955
36.0994	0.348869
36.3078	0.347789
36.5174	0.346715
36.7282	0.345647
36.9403	0.344585
37.1535	0.34353
37.368	0.34248
37.5837	0.341437
37.8007	0.3404
38.0189	0.339369
38.2384	0.338344
38.4592	0.337324
38.6812	0.336311
38.9045	0.335304
39.1291	0.334303
39.355	0.333307
39.5822	0.332318
39.8107	0.331334
40.0405	0.330356
40.2717	0.329384
40.5042	0.328417
40.738	0.327457
40.9732	0.326502
41.2098	0.325552
41.4477	0.324609
41.6869	0.323671
41.9276	0.322738
42.1697	0.321811
42.4131	0.32089
42.658	0.319974
42.9042	0.319063
43.1519	0.318158
43.401	0.317259
43.6516	0.316365
43.9036	0.315476
44.157	0.314593
44.412	0.313715
44.6684	0.312842
44.9262	0.311974
45.1856	0.311112
45.4465	0.310255
45.7088	0.309403
45.9727	0.308557
46.2381	0.307715
46.505	0.306879
46.7735	0.306048
47.0435	0.305222
47.3151	0.304401
47.5883	0.303585
47.863	0.302774
48.1393	0.301968
48.4172	0.301167
48.6968	0.300371
48.9779	0.29958
49.2606	0.298794
49.545	0.298013
49.831	0.297237
50.1187	0.296465
50.4081	0.295698
50.6991	0.294936
50.9918	0.294179
51.2861	0.293427
51.5822	0.292679
51.88	0.291936
52.1795	0.291198
52.4807	0.290464
52.7837	0.289735
53.0884	0.289011
53.3949	0.288291
53.7032	0.287576
54.0132	0.286866
54.325	0.28616
54.6387	0.285458
54.9541	0.284761
55.2713	0.284068
55.5904	0.28338
55.9114	0.282697
56.2341	0.282017
56.5588	0.281343
56.8853	0.280672
57.2137	0.280006
57.544	0.279344
57.8762	0.278687
58.2103	0.278034
58.5464	0.277385
58.8844	0.27674
59.2243	0.2761
59.5662	0.275464
59.9101	0.274832
60.256	0.274204
60.6038	0.27358
60.9537	0.272961
61.3056	0.272346
61.6595	0.271734
62.0155	0.271127
62.3735	0.270524
62.7336	0.269925
63.0957	0.26933
63.46	0.268739
63.8263	0.268152
64.1948	0.267569
64.5654	0.26699
64.9382	0.266415
65.3131	0.265844
65.6901	0.265277
66.0693	0.264713
66.4508	0.264154
66.8344	0.263598
67.2202	0.263046
67.6083	0.262498
67.9986	0.261954
68.3912	0.261414
68.786	0.260877
69.1831	0.260344
69.5825	0.259815
69.9842	0.259289
70.3882	0.258768
70.7946	0.25825
71.2033	0.257735
71.6143	0.257224
72.0278	0.256717
72.4436	0.256214
72.8618	0.255714
73.2825	0.255218
73.7055	0.254725
74.131	0.254236
74.559	0.25375
74.9894	0.253268
75.4223	0.252789
75.8578	0.252314
76.2957	0.251842
76.7361	0.251374
77.1792	0.250909
77.6247	0.250448
78.0728	0.24999
78.5236	0.249535
78.9769	0.249084
79.4328	0.248637
79.8914	0.248192
80.3526	0.247751
80.8165	0.247313
81.2831	0.246879
81.7523	0.246447
82.2243	0.246019
82.699	0.245595
83.1764	0.245173
83.6566	0.244755
84.1395	0.24434
84.6253	0.243928
85.1138	0.24352
85.6052	0.243114
86.0994	0.242712
86.5964	0.242313
87.0964	0.241917
87.5992	0.241524
88.1049	0.241134
88.6135	0.240748
89.1251	0.240364
89.6396	0.239983
90.1571	0.239606
90.6776	0.239231
91.2011	0.23886
91.7276	0.238492
92.2571	0.238126
92.7897	0.237764
93.3254	0.237404
93.8642	0.237048
94.4061	0.236694
94.9511	0.236343
95.4993	0.235995
96.0506	0.235651
96.6051	0.235308
97.1628	0.234969
97.7237	0.234633
98.2879	0.2343
98.8553	0.233969
99.426	0.233641
100	0.233316
100.577	0.232994
101.158	0.232675
101.742	0.232358
102.329	0.232044
102.92	0.231733
103.514	0.231425
104.112	0.231119
104.713	0.230816
105.317	0.230516
105.925	0.230218
106.537	0.229923
107.152	0.229631
107.771	0.229342
108.393	0.229055
109.018	0.22877
109.648	0.228483
110.281	0.228179
110.917	0.227878
111.558	0.227579
112.202	0.227282
112.85	0.226988
113.501	0.226697
114.156	0.226408
114.815	0.226122
115.478	0.225838
116.145	0.225557
116.815	0.225277
117.49	0.225001
118.168	0.224727
118.85	0.224455
119.536	0.224186
120.226	0.223919
120.921	0.223654
121.619	0.223392
122.321	0.223132
123.027	0.222874
123.737	0.222619
124.451	0.222366
125.17	0.222116
125.893	0.221867
126.619	0.221621
127.35	0.221377
128.086	0.221136
128.825	0.220897
129.569	0.22066
130.317	0.220425
131.069	0.220192
131.826	0.219962
132.587	0.219734
133.352	0.219508
134.122	0.219284
134.896	0.219062
135.675	0.218843
136.458	0.218625
137.246	0.21841
138.038	0.218197
138.835	0.217986
139.637	0.217777
140.443	0.21757
141.254	0.217365
142.069	0.217162
142.889	0.216962
143.714	0.216763
144.544	0.216567
145.378	0.216372
146.218	0.21618
147.062	0.215989
147.911	0.2158
148.765	0.215614
149.624	0.215429
150.487	0.215247
151.356	0.215066
152.23	0.214887
153.109	0.214711
153.993	0.214536
154.882	0.214363
155.776	0.214192
156.675	0.214023
157.58	0.213855
158.489	0.21369
159.404	0.213526
160.325	0.213365
161.25	0.213205
162.181	0.213047
163.117	0.212891
164.059	0.212736
165.006	0.212584
165.959	0.212433
166.917	0.212284
167.88	0.212137
168.85	0.211992
169.824	0.211848
170.805	0.211706
171.791	0.211566
172.783	0.211428
173.78	0.211291
174.783	0.211156
175.792	0.211023
176.807	0.210891
177.828	0.210761
178.855	0.210633
179.887	0.210507
180.926	0.210382
181.97	0.210259
183.021	0.210137
184.077	0.210017
185.14	0.209899
186.209	0.209782
187.284	0.209667
188.365	0.209554
189.452	0.209442
190.546	0.209332
191.646	0.209223
192.752	0.209116
193.865	0.20901
194.984	0.208906
196.11	0.208804
197.242	0.208703
198.381	0.208603
199.526	0.208505
200.678	0.208409
201.837	0.208314
203.002	0.20822
204.174	0.208128
205.353	0.208038
206.538	0.207949
207.73	0.207861
208.93	0.207775
210.136	0.207691
211.349	0.207607
212.569	0.207526
213.796	0.207445
215.03	0.207366
216.272	0.207289
217.52	0.207212
218.776	0.207138
220.039	0.207064
221.309	0.206992
222.587	0.206921
223.872	0.206852
225.165	0.206784
226.464	0.206717
227.772	0.206652
229.087	0.206588
230.409	0.206525
231.739	0.206464
233.077	0.206404
234.423	0.206345
235.776	0.206287
237.137	0.206231
238.506	0.206176
239.883	0.206122
241.268	0.20607
242.661	0.206019
244.062	0.205969
245.471	0.20592
246.888	0.205872
248.313	0.205826
249.747	0.205781
251.189	0.205737
252.639	0.205695
254.097	0.205653
255.564	0.205613
257.04	0.205574
258.523	0.205536
260.016	0.205499
261.517	0.205463
263.027	0.205429
264.545	0.205395
266.073	0.205363
267.609	0.205332
269.153	0.205302
270.707	0.205273
272.27	0.205245
273.842	0.205218
275.423	0.205193
277.013	0.205168
278.612	0.205145
280.221	0.205122
281.838	0.205101
283.465	0.205081
285.102	0.205062
286.748	0.205044
288.403	0.205026
290.068	0.20501
291.743	0.204995
293.427	0.204981
295.121	0.204968
296.825	0.204956
298.538	0.204945
300.262	0.204935
301.995	0.204926
303.739	0.204918
305.492	0.204911
307.256	0.204905
309.03	0.2049
310.814	0.204895
312.608	0.204892
314.413	0.20489
316.228	0.204888
318.053	0.204888
319.89	0.204888
321.736	0.20489
323.594	0.204892
325.462	0.204895
327.341	0.204899
329.23	0.204904
331.131	0.20491
333.043	0.204917
334.965	0.204925
336.899	0.204933
338.844	0.204942
340.8	0.204953
342.768	0.204964
344.747	0.204976
346.737	0.204988
348.739	0.205002
350.752	0.205016
352.777	0.205032
354.813	0.205048
356.862	0.205064
358.922	0.205082
360.994	0.205101
363.078	0.20512
365.174	0.20514
367.282	0.205161
369.403	0.205182
371.535	0.205205
373.68	0.205228
375.837	0.205252
378.007	0.205276
380.189	0.205302
382.384	0.205328
384.592	0.205355
386.812	0.205383
389.045	0.205411
391.291	0.20544
393.55	0.20547
395.822	0.2055
398.107	0.205532
400.405	0.205564
402.717	0.205596
405.042	0.20563
407.38	0.205664
409.732	0.205698
412.098	0.205734
414.477	0.20577
416.869	0.205806
419.276	0.205844
421.697	0.205882
424.131	0.20592
426.58	0.20596
429.042	0.206
431.519	0.20604
434.01	0.206082
436.516	0.206124
439.036	0.206166
441.57	0.206209
444.12	0.206253
446.684	0.206297
449.262	0.206342
451.856	0.206388
454.465	0.206434
457.088	0.206481
459.727	0.206528
462.381	0.206576
465.05	0.206624
467.735	0.206673
470.435	0.206723
473.151	0.206773
475.883	0.206824
478.63	0.206875
481.393	0.206927
484.172	0.20698
486.968	0.207032
489.779	0.207086
492.606	0.20714
495.45	0.207195
498.31	0.20725
501.187	0.207305
504.081	0.207361
506.991	0.207418
509.918	0.207475
512.861	0.207533
515.822	0.207591
518.8	0.207649
521.795	0.207708
524.807	0.207768
527.837	0.207828
530.884	0.207889
533.949	0.20795
537.032	0.208011
540.132	0.208073
543.25	0.208136
546.387	0.208198
549.541	0.208262
552.713	0.208326
555.904	0.20839
559.114	0.208454
562.341	0.20852
565.588	0.208585
568.853	0.208651
572.137	0.208718
575.44	0.208784
578.762	0.208852
582.103	0.208919
585.464	0.208987
588.844	0.209056
592.243	0.209125
595.662	0.209194
599.101	0.209264
602.56	0.209334
606.038	0.209404
609.537	0.209475
613.056	0.209547
616.595	0.209618
620.155	0.20969
623.735	0.209763
627.336	0.209835
630.957	0.209909
634.6	0.209982
638.263	0.210056
641.948	0.21013
645.654	0.210205
649.382	0.21028
653.131	0.210355
656.901	0.21043
660.693	0.210506
664.508	0.210583
668.344	0.210659
672.202	0.210736
676.083	0.210814
679.986	0.210891
683.912	0.210969
687.86	0.211047
691.831	0.211126
695.825	0.211205
699.842	0.211284
703.882	0.211363
707.946	0.211443
712.033	0.211523
716.143	0.211604
720.278	0.211684
724.436	0.211765
728.618	0.211846
732.825	0.211928
737.055	0.21201
741.31	0.212092
745.59	0.212174
749.894	0.212257
754.223	0.21234
758.578	0.212423
762.957	0.212507
767.361	0.21259
771.792	0.212674
776.247	0.212758
780.728	0.212843
785.236	0.212928
789.769	0.213013
794.328	0.213098
798.914	0.213183
803.526	0.213269
808.165	0.213355
812.831	0.213441
817.523	0.213528
822.243	0.213614
826.99	0.213701
831.764	0.213788
836.566	0.213876
841.395	0.213963
846.253	0.214051
851.138	0.214139
856.052	0.214227
860.994	0.214316
865.964	0.214404
870.964	0.214493
875.992	0.214582
881.049	0.214671
886.135	0.214761
891.251	0.21485
896.396	0.21494
901.571	0.21503
906.776	0.21512
912.011	0.215211
917.276	0.215301
922.571	0.215392
927.897	0.215483
933.254	0.215574
938.642	0.215665
944.061	0.215757
949.511	0.215848
954.993	0.21594
960.506	0.216032
966.051	0.216124
971.628	0.216216
977.237	0.216309
982.879	0.216402
988.553	0.216494
994.26	0.216587
1000	0.21668
1005.77	0.216777
1011.58	0.216874
1017.42	0.216971
1023.29	0.217069
1029.2	0.217167
1035.14	0.217265
1041.12	0.217363
1047.13	0.217461
1053.17	0.217559
1059.25	0.217658
1065.37	0.217756
1071.52	0.217855
1077.71	0.217954
1083.93	0.218053
1090.18	0.218152
1096.48	0.218251
1102.81	0.21835
1109.17	0.21845
1115.58	0.218549
1122.02	0.218649
1128.5	0.218749
1135.01	0.218849
1141.56	0.218949
1148.15	0.219049
1154.78	0.219149
1161.45	0.219249
1168.15	0.21935
1174.9	0.21945
1181.68	0.219551
1188.5	0.219651
1195.36	0.219752
1202.26	0.219853
1209.21	0.219954
1216.19	0.220055
1223.21	0.220156
1230.27	0.220258
1237.37	0.220359
1244.51	0.22046
1251.7	0.220562
1258.93	0.220663
1266.19	0.220765
1273.5	0.220867
1280.86	0.220968
1288.25	0.22107
1295.69	0.221172
1303.17	0.221274
1310.69	0.221376
1318.26	0.221479
1325.87	0.221581
1333.52	0.221683
1341.22	0.221785
1348.96	0.221888
1356.75	0.22199
1364.58	0.222093
1372.46	0.222196
1380.38	0.222298
1388.35	0.222401
1396.37	0.222504
1404.43	0.222607
1412.54	0.22271
1420.69	0.222812
1428.89	0.222915
1437.14	0.223019
1445.44	0.223122
1453.78	0.223225
1462.18	0.223328
1470.62	0.223431
1479.11	0.223535
1487.65	0.223638
1496.24	0.223741
1504.87	0.223845
1513.56	0.223948
1522.3	0.224052
1531.09	0.224155
1539.93	0.224259
1548.82	0.224362
1557.76	0.224466
1566.75	0.22457
1575.8	0.224673
1584.89	0.224777
1594.04	0.224881
1603.25	0.224985
1612.5	0.225088
1621.81	0.225192
1631.17	0.225296
1640.59	0.2254
1650.06	0.225504
1659.59	0.225608
1669.17	0.225712
1678.8	0.225816
1688.5	0.22592
1698.24	0.226024
1708.05	0.226128
1717.91	0.226232
1727.83	0.226336
1737.8	0.22644
1747.83	0.226544
1757.92	0.226648
1768.07	0.226753
1778.28	0.226857
1788.55	0.226961
1798.87	0.227065
1809.26	0.227169
1819.7	0.227273
1830.21	0.227378
1840.77	0.227482
1851.4	0.227586
1862.09	0.22769
1872.84	0.227794
1883.65	0.227899
1894.52	0.228003
1905.46	0.228107
1916.46	0.228211
1927.52	0.228315
1938.65	0.22842
1949.84	0.228524
1961.1	0.228628
1972.42	0.228732
1983.81	0.228837
1995.26	0.228941
2006.78	0.229045
2018.37	0.229149
2030.02	0.229253
2041.74	0.229358
2053.53	0.229462
2065.38	0.229566
2077.3	0.22967
2089.3	0.229774
2101.36	0.229878
2113.49	0.229982
2125.69	0.230086
2137.96	0.230191
2150.3	0.230295
2162.72	0.230399
2175.2	0.230503
2187.76	0.230607
2200.39	0.230711
2213.09	0.230815
2225.87	0.230919
2238.72	0.231023
2251.65	0.231127
2264.64	0.231231
2277.72	0.231334
2290.87	0.231438
2304.09	0.231542
2317.39	0.231646
2330.77	0.23175
2344.23	0.231854
2357.76	0.231957
2371.37	0.232061
2385.06	0.232165
2398.83	0.232269
2412.68	0.232372
2426.61	0.232476
2440.62	0.232579
2454.71	0.232683
2468.88	0.232787
2483.13	0.23289
2497.47	0.232994
2511.89	0.233097
2526.39	0.233201
2540.97	0.233304
2555.64	0.233407
2570.4	0.233511
2585.23	0.233614
2600.16	0.233717
2615.17	0.23382
2630.27	0.233924
2645.45	0.234027
2660.73	0.23413
2676.09	0.234233
2691.53	0.234336
2707.07	0.234439
2722.7	0.234542
2738.42	0.234645
2754.23	0.234748
2770.13	0.234851
2786.12	0.234954
2802.21	0.235056
2818.38	0.235159
2834.65	0.235262
2851.02	0.235365
2867.48	0.235467
2884.03	0.23557
2900.68	0.235672
2917.43	0.235775
2934.27	0.235877
2951.21	0.23598
2968.25	0.236082
2985.38	0.236184
3002.62	0.236287
3019.95	0.236389
3037.39	0.236491
3054.92	0.236593
3072.56	0.236695
3090.3	0.236798
3108.14	0.2369
3126.08	0.237002
3144.13	0.237103
3162.28	0.237205
3180.53	0.237307
3198.9	0.237409
3217.36	0.237511
3235.94	0.237612
3254.62	0.237714
3273.41	0.237816
3292.3	0.237917
3311.31	0.238019
3330.43	0.23812
3349.65	0.238221
3368.99	0.238323
3388.44	0.238424
3408	0.238525
3427.68	0.238626
3447.47	0.238727
3467.37	0.238829
3487.39	0.23893
3507.52	0.23903
3527.77	0.239131
3548.13	0.239232
3568.62	0.239333
3589.22	0.239434
3609.94	0.239534
3630.78	0.239635
3651.74	0.239736
3672.82	0.239836
3694.03	0.239937
3715.35	0.240037
3736.8	0.240137
3758.37	0.240238
3780.07	0.240338
3801.89	0.240438
3823.84	0.240538
3845.92	0.240638
3868.12	0.240738
3890.45	0.240838
3912.91	0.240938
3935.5	0.241038
3958.22	0.241138
3981.07	0.241237
4004.05	0.241337
4027.17	0.241437
4050.42	0.241536
4073.8	0.241636
4097.32	0.241735
4120.98	0.241834
4144.77	0.241934
4168.69	0.242033
4192.76	0.242132
4216.97	0.242231
4241.31	0.24233
4265.8	0.242429
4290.42	0.242528
4315.19	0.242627
4340.1	0.242726
4365.16	0.242824
4390.36	0.242923
4415.7	0.243022
4441.2	0.24312
4466.84	0.243219
4492.62	0.243317
4518.56	0.243415
4544.65	0.243514
4570.88	0.243612
4597.27	0.24371
4623.81	0.243808
4650.5	0.243906
4677.35	0.244004
4704.35	0.244102
4731.51	0.2442
4758.83	0.244297
4786.3	0.244395
4813.93	0.244493
4841.72	0.24459
4869.68	0.244688
4897.79	0.244785
4926.06	0.244883
4954.5	0.24498
4983.1	0.245077
5011.87	0.245174
5040.81	0.245271
5069.91	0.245368
5099.18	0.245465
5128.61	0.245562
5158.22	0.245659
5188	0.245756
5217.95	0.245852
5248.07	0.245949
5278.37	0.246046
5308.84	0.246142
5339.49	0.246238
5370.32	0.246335
5401.32	0.246431
5432.5	0.246527
5463.87	0.246623
5495.41	0.246719
5527.13	0.246815
5559.04	0.246911
5591.14	0.247007
5623.41	0.247103
5655.88	0.247199
5688.53	0.247294
5721.37	0.24739
5754.4	0.247485
5787.62	0.247581
5821.03	0.247676
5854.64	0.247771
5888.44	0.247867
5922.43	0.247962
5956.62	0.248057
5991.01	0.248152
6025.6	0.248247
6060.38	0.248342
6095.37	0.248436
6130.56	0.248531
6165.95	0.248626
6201.55	0.24872
6237.35	0.248815
6273.36	0.248909
6309.57	0.249004
6346	0.249098
6382.63	0.249192
6419.48	0.249286
6456.54	0.24938
6493.82	0.249474
6531.31	0.249568
6569.01	0.249662
6606.93	0.249756
6645.08	0.24985
6683.44	0.249943
6722.02	0.250037
6760.83	0.25013
6799.86	0.250224
6839.12	0.250317
6878.6	0.250411
6918.31	0.250504
6958.25	0.250597
6998.42	0.25069
7038.82	0.250783
7079.46	0.250876
7120.33	0.250969
7161.43	0.251061
7202.78	0.251154
7244.36	0.251247
7286.18	0.251339
7328.25	0.251432
7370.55	0.251524
7413.1	0.251617
7455.9	0.251709
7498.94	0.251801
7542.23	0.251893
7585.78	0.251985
7629.57	0.252077
7673.61	0.252169
7717.92	0.252261
7762.47	0.252353
7807.28	0.252444
7852.36	0.252536
7897.69	0.252627
7943.28	0.252719
7989.14	0.25281
8035.26	0.252901
8081.65	0.252993
8128.31	0.253084
8175.23	0.253175
8222.43	0.253266
8269.9	0.253357
8317.64	0.253448
8365.66	0.253539
8413.95	0.253629
8462.53	0.25372
8511.38	0.25381
8560.52	0.253901
8609.94	0.253991
8659.64	0.254082
8709.64	0.254172
8759.92	0.254262
8810.49	0.254352
8861.35	0.254442
8912.51	0.254532
8963.96	0.254622
9015.71	0.254712
9067.76	0.254802
9120.11	0.254891
9172.76	0.254981
9225.71	0.25507
9278.97	0.25516
9332.54	0.255249
9386.42	0.255339
9440.61	0.255428
9495.11	0.255517
9549.93	0.255606
9605.06	0.255695
9660.51	0.255784
9716.28	0.255873
9772.37	0.255962
9828.79	0.25605
9885.53	0.256139
9942.6	0.256228
10000	0.256316
10057.7	0.256404
10115.8	0.256493
10174.2	0.256581
10232.9	0.256669
10292	0.256757
10351.4	0.256845
10411.2	0.256933
10471.3	0.257021
10531.7	0.257109
10592.5	0.257197
10653.7	0.257284
10715.2	0.257372
10777.1	0.25746
10839.3	0.257547
10901.8	0.257634
10964.8	0.257722
11028.1	0.257809
11091.7	0.257896
11155.8	0.257983
11220.2	0.25807
11285	0.258157
11350.1	0.258244
11415.6	0.258331
11481.5	0.258417
11547.8	0.258504
11614.5	0.258591
11681.5	0.258677
11749	0.258764
11816.8	0.25885
11885	0.258936
11953.6	0.259022
12022.6	0.259109
12092.1	0.259195
12161.9	0.259281
12232.1	0.259366
12302.7	0.259452
12373.7	0.259538
12445.1	0.259624
12517	0.259709
12589.3	0.259795
12661.9	0.25988
12735	0.259966
12808.6	0.260051
12882.5	0.260136
12956.9	0.260222
13031.7	0.260307
13106.9	0.260392
13182.6	0.260477
13258.7	0.260562
13335.2	0.260646
13412.2	0.260731
13489.6	0.260816
13567.5	0.2609
13645.8	0.260985
13724.6	0.261069
13803.8	0.261154
13883.5	0.261238
13963.7	0.261322
14044.3	0.261406
14125.4	0.261491
14206.9	0.261575
14288.9	0.261659
14371.4	0.261742
14454.4	0.261826
14537.8	0.26191
14621.8	0.261994
14706.2	0.262077
14791.1	0.262161
14876.5	0.262244
14962.4	0.262328
15048.7	0.262411
15135.6	0.262494
15223	0.262577
15310.9	0.26266
15399.3	0.262744
15488.2	0.262826
15577.6	0.262909
15667.5	0.262992
15758	0.263075
15848.9	0.263158
15940.4	0.26324
16032.5	0.263323
16125	0.263405
16218.1	0.263488
16311.7	0.26357
16405.9	0.263652
16500.6	0.263734
16595.9	0.263817
16691.7	0.263899
16788	0.263981
16885	0.264063
16982.4	0.264144
17080.5	0.264226
17179.1	0.264308
17278.3	0.26439
17378	0.264471
17478.3	0.264553
17579.2	0.264634
17680.7	0.264715
17782.8	0.264797
17885.5	0.264878
17988.7	0.264959
18092.6	0.26504
18197	0.265121
18302.1	0.265202
18407.7	0.265283
18514	0.265364
18620.9	0.265445
18728.4	0.265525
18836.5	0.265606
18945.2	0.265687
19054.6	0.265767
19164.6	0.265847
19275.2	0.265928
19386.5	0.266008
19498.4	0.266088
19611	0.266168
19724.2	0.266249
19838.1	0.266329
19952.6	0.266409
20067.8	0.266488
20183.7	0.266568
20300.2	0.266648
20417.4	0.266728
20535.3	0.266807
20653.8	0.266887
20773	0.266966
20893	0.267046
21013.6	0.267125
21134.9	0.267205
21256.9	0.267284
21379.6	0.267363
21503	0.267442
21627.2	0.267521
21752	0.2676
21877.6	0.267679
22003.9	0.267758
22130.9	0.267837
22258.7	0.267915
22387.2	0.267994
22516.5	0.268073
22646.4	0.268151
22777.2	0.26823
22908.7	0.268308
23040.9	0.268386
23173.9	0.268465
23307.7	0.268543
23442.3	0.268621
23577.6	0.268699
23713.7	0.268777
23850.6	0.268855
23988.3	0.268933
24126.8	0.269011
24266.1	0.269089
24406.2	0.269167
24547.1	0.269244
24688.8	0.269322
24831.3	0.269399
24974.7	0.269477
25118.9	0.269554
25263.9	0.269632
25409.7	0.269709
25556.4	0.269786
25704	0.269863
25852.3	0.269941
26001.6	0.270018
26151.7	0.270095
26302.7	0.270172
26454.5	0.270248
26607.3	0.270325
26760.9	0.270402
26915.3	0.270479
27070.7	0.270555
27227	0.270632
27384.2	0.270709
27542.3	0.270785
27701.3	0.270861
27861.2	0.270938
28022.1	0.271014
28183.8	0.27109
28346.5	0.271167
28510.2	0.271243
28674.8	0.271319
28840.3	0.271395
29006.8	0.271471
29174.3	0.271547
29342.7	0.271623
29512.1	0.271698
29682.5	0.271774
29853.8	0.27185
30026.2	0.271925
30199.5	0.272001
30373.9	0.272077
30549.2	0.272152
30725.6	0.272227
30903	0.272303
31081.4	0.272378
31260.8	0.272453
31441.3	0.272528
31622.8	0.272604
31805.3	0.272679
31989	0.272754
32173.6	0.272829
32359.4	0.272904
32546.2	0.272979
32734.1	0.273053
32923	0.273128
33113.1	0.273203
33304.3	0.273277
33496.5	0.273352
33689.9	0.273427
33884.4	0.273501
34080	0.273576
34276.8	0.27365
34474.7	0.273724
34673.7	0.273799
34873.9	0.273873
35075.2	0.273947
35277.7	0.274021
35481.3	0.274095
35686.2	0.274169
35892.2	0.274243
36099.4	0.274317
36307.8	0.274391
36517.4	0.274465
36728.2	0.274539
36940.3	0.274613
37153.5	0.274686
37368	0.27476
37583.7	0.274834
37800.7	0.274907
38018.9	0.274981
38238.4	0.275054
38459.2	0.275127
38681.2	0.275201
38904.5	0.275274
39129.1	0.275347
39355	0.275421
39582.2	0.275494
39810.7	0.275567
40040.5	0.27564
40271.7	0.275713
40504.2	0.275786
40738	0.275859
40973.2	0.275932
41209.8	0.276005
41447.7	0.276077
41686.9	0.27615
41927.6	0.276223
42169.7	0.276296
42413.1	0.276368
42658	0.276441
42904.2	0.276513
43151.9	0.276586
43401	0.276658
43651.6	0.276731
43903.6	0.276803
44157	0.276875
44412	0.276948
44668.4	0.27702
44926.2	0.277092
45185.6	0.277164
45446.5	0.277236
45708.8	0.277308
45972.7	0.27738
46238.1	0.277452
46505	0.277524
46773.5	0.277596
47043.5	0.277668
47315.1	0.27774
47588.3	0.277812
47863	0.277883
48139.3	0.277955
48417.2	0.278027
48696.8	0.278098
48977.9	0.27817
49260.6	0.278241
49545	0.278313
49831	0.278384
50118.7	0.278456
50408.1	0.278527
50699.1	0.278598
50991.8	0.27867
51286.1	0.278741
51582.2	0.278812
51880	0.278883
52179.5	0.278955
52480.7	0.279026
52783.7	0.279097
53088.4	0.279168
53394.9	0.279239
53703.2	0.27931
54013.2	0.279381
54325	0.279452
54638.7	0.279522
54954.1	0.279593
55271.3	0.279664
55590.4	0.279735
55911.4	0.279805
56234.1	0.279876
56558.8	0.279947
56885.3	0.280017
57213.7	0.280088
57544	0.280158
57876.2	0.280229
58210.3	0.280299
58546.4	0.28037
58884.4	0.28044
59224.3	0.280511
59566.2	0.280581
59910.1	0.280651
60256	0.280721
60603.8	0.280792
60953.7	0.280862
61305.6	0.280932
61659.5	0.281002
62015.5	0.281072
62373.5	0.281142
62733.6	0.281212
63095.7	0.281282
63460	0.281352
63826.3	0.281422
64194.8	0.281492
64565.4	0.281562
64938.2	0.281632
65313.1	0.281702
65690.1	0.281771
66069.3	0.281841
66450.8	0.281911
66834.4	0.281981
67220.2	0.28205
67608.3	0.28212
67998.6	0.28219
68391.2	0.282259
68786	0.282329
69183.1	0.282398
69582.5	0.282468
69984.2	0.282537
70388.2	0.282607
70794.6	0.282676
71203.3	0.282745
71614.3	0.282815
72027.8	0.282884
72443.6	0.282953
72861.8	0.283022
73282.5	0.283092
73705.5	0.283161
74131	0.28323
74559	0.283299
74989.4	0.283368
75422.3	0.283437
75857.8	0.283507
76295.7	0.283576
76736.1	0.283645
77179.2	0.283714
77624.7	0.283783
78072.8	0.283851
78523.6	0.28392
78976.9	0.283989
79432.8	0.284058
79891.4	0.284127
80352.6	0.284196
80816.5	0.284264
81283.1	0.284333
81752.3	0.284402
82224.3	0.284471
82699	0.284539
83176.4	0.284608
83656.6	0.284677
84139.5	0.284745
84625.3	0.284814
85113.8	0.284882
85605.2	0.284951
86099.4	0.285019
86596.4	0.285088
87096.4	0.285156
87599.2	0.285225
88104.9	0.285293
88613.5	0.285362
89125.1	0.28543
89639.6	0.285498
90157.1	0.285567
90677.6	0.285635
91201.1	0.285703
91727.6	0.285771
92257.1	0.28584
92789.7	0.285908
93325.4	0.285976
93864.2	0.286044
94406.1	0.286112
94951.1	0.28618
95499.3	0.286249
96050.6	0.286317
96605.1	0.286385
97162.8	0.286453
97723.7	0.286521
98287.9	0.286589
98855.3	0.286657
99426	0.286725
100000	0.286793
100577	0.286861
101158	0.286928
101742	0.286996
102329	0.287064
102920	0.287132
103514	0.2872
104112	0.287268
104713	0.287335
105317	0.287403
105925	0.287471
106537	0.287539
107152	0.287606
107771	0.287674
108393	0.287742
109018	0.287809
109648	0.287877
110281	0.287945
110917	0.288012
111558	0.28808
112202	0.288147
112850	0.288215
113501	0.288282
114156	0.28835
114815	0.288417
115478	0.288485
116145	0.288552
116815	0.28862
117490	0.288687
118168	0.288754
118850	0.288822
119536	0.288889
120226	0.288957
120921	0.289024
121619	0.289091
122321	0.289159
123027	0.289226
123737	0.289293
124451	0.28936
125170	0.289428
125893	0.289495
126619	0.289562
127350	0.289629
128086	0.289697
128825	0.289764
129569	0.289831
130317	0.289898
131069	0.289965
131826	0.290032
132587	0.290099
133352	0.290166
134122	0.290234
134896	0.290301
135675	0.290368
136458	0.290435
137246	0.290502
138038	0.290569
138835	0.290636
139637	0.290703
140443	0.29077
141254	0.290837
142069	0.290904
142889	0.290971
143714	0.291037
144544	0.291104
145378	0.291171
146218	0.291238
147062	0.291305
147911	0.291372
148765	0.291439
149624	0.291506
150487	0.291572
151356	0.291639
152230	0.291706
153109	0.291773
153993	0.29184
154882	0.291906
155776	0.291973
156675	0.29204
157580	0.292107
158489	0.292173
159404	0.29224
160325	0.292307
161250	0.292374
162181	0.29244
163117	0.292507
164059	0.292574
165006	0.29264
165959	0.292707
166917	0.292774
167880	0.29284
168850	0.292907
169824	0.292974
170805	0.29304
171791	0.293107
172783	0.293173
173780	0.29324
174783	0.293307
175792	0.293373
176807	0.29344
177828	0.293506
178855	0.293573
179887	0.293639
180926	0.293706
181970	0.293772
183021	0.293839
184077	0.293905
185140	0.293972
186209	0.294038
187284	0.294105
188365	0.294171
189452	0.294238
190546	0.294304
191646	0.294371
192752	0.294437
193865	0.294504
194984	0.29457
196110	0.294637
197242	0.294703
198381	0.29477
199526	0.294836
200678	0.294902
201837	0.294969
203002	0.295035
204174	0.295102
205353	0.295168
206538	0.295234
207730	0.295301
208930	0.295367
210136	0.295434
211349	0.2955
212569	0.295566
213796	0.295633
215030	0.295699
216272	0.295765
217520	0.295832
218776	0.295898
220039	0.295964
221309	0.296031
222587	0.296097
223872	0.296163
225165	0.29623
226464	0.296296
227772	0.296362
229087	0.296429
230409	0.296495
231739	0.296561
233077	0.296628
234423	0.296694
235776	0.29676
237137	0.296827
238506	0.296893
239883	0.296959
241268	0.297025
242661	0.297092
244062	0.297158
245471	0.297224
246888	0.297291
248313	0.297357
249747	0.297423
251189	0.297489
252639	0.297556
254097	0.297622
255564	0.297688
257040	0.297754
258523	0.297821
260016	0.297887
261517	0.297953
263027	0.298019
264545	0.298086
266073	0.298152
267609	0.298218
269153	0.298285
270707	0.298351
272270	0.298417
273842	0.298483
275423	0.29855
277013	0.298616
278612	0.298682
280221	0.298748
281838	0.298815
283465	0.298881
285102	0.298947
286748	0.299013
288403	0.29908
290068	0.299146
291743	0.299212
293427	0.299278
295121	0.299345
296825	0.299411
298538	0.299477
300262	0.299543
301995	0.29961
303739	0.299676
305492	0.299742
307256	0.299808
309030	0.299875
310814	0.299941
312608	0.300007
314413	0.300073
316228	0.30014
318053	0.300206
319890	0.300272
321736	0.300338
323594	0.300405
325462	0.300471
327341	0.300537
329230	0.300604
331131	0.30067
333043	0.300736
334965	0.300802
336899	0.300869
338844	0.300935
340800	0.301001
342768	0.301068
344747	0.301134
346737	0.3012
348739	0.301266
350752	0.301333
352777	0.301399
354813	0.301465
356862	0.301532
358922	0.301598
360994	0.301664
363078	0.301731
365174	0.301797
367282	0.301863
369403	0.30193
371535	0.301996
373680	0.302062
375837	0.302129
378007	0.302195
380189	0.302261
382384	0.302328
384592	0.302394
386812	0.30246
389045	0.302527
391291	0.302593
393550	0.302659
395822	0.302726
398107	0.302792
400405	0.302858
402717	0.302925
405042	0.302991
407380	0.303058
409732	0.303124
412098	0.30319
414477	0.303257
416869	0.303323
419276	0.30339
421697	0.303456
424131	0.303523
426580	0.303589
429042	0.303655
431519	0.303722
434010	0.303788
436516	0.303855
439036	0.303921
441570	0.303988
444120	0.304054
446684	0.304121
449262	0.304187
451856	0.304253
454465	0.30432
457088	0.304386
459727	0.304453
462381	0.304519
465050	0.304586
467735	0.304652
470435	0.304719
473151	0.304786
475883	0.304852
478630	0.304919
481393	0.304985
484172	0.305052
486968	0.305118
489779	0.305185
492606	0.305251
495450	0.305318
498310	0.305385
501187	0.305451
504081	0.305518
506991	0.305584
509918	0.305651
512861	0.305718
515822	0.305784
518800	0.305851
521795	0.305917
524807	0.305984
527837	0.306051
530884	0.306117
533949	0.306184
537032	0.306251
540132	0.306317
543250	0.306384
546387	0.306451
549541	0.306517
552713	0.306584
555904	0.306651
559114	0.306718
562341	0.306784
565588	0.306851
568853	0.306918
572137	0.306985
575440	0.307051
578762	0.307118
582103	0.307185
585464	0.307252
588844	0.307318
592243	0.307385
595662	0.307452
599101	0.307519
602560	0.307586
606038	0.307652
609537	0.307719
613056	0.307786
616595	0.307853
620155	0.30792
623735	0.307987
627336	0.308054
630957	0.308121
634600	0.308187
638263	0.308254
641948	0.308321
645654	0.308388
649382	0.308455
653131	0.308522
656901	0.308589
660693	0.308656
664508	0.308723
668344	0.30879
672202	0.308857
676083	0.308924
679986	0.308991
683912	0.309058
687860	0.309125
691831	0.309192
695825	0.309259
699842	0.309326
703882	0.309393
707946	0.30946
712033	0.309527
716143	0.309594
720278	0.309661
724436	0.309729
728618	0.309796
732825	0.309863
737055	0.30993
741310	0.309997
745590	0.310064
749894	0.310131
754223	0.310199
758578	0.310266
762957	0.310333
767361	0.3104
771792	0.310467
776247	0.310535
780728	0.310602
785236	0.310669
789769	0.310736
794328	0.310804
798914	0.310871
803526	0.310938
808165	0.311005
812831	0.311073
817523	0.31114
822243	0.311207
826990	0.311275
831764	0.311342
836566	0.311409
841395	0.311477
846253	0.311544
851138	0.311611
856052	0.311679
860994	0.311746
865964	0.311814
870964	0.311881
875992	0.311949
881049	0.312016
886135	0.312084
891251	0.312151
896396	0.312218
901571	0.312286
906776	0.312353
912011	0.312421
917276	0.312489
922571	0.312556
927897	0.312624
933254	0.312691
938642	0.312759
944061	0.312826
949511	0.312894
954993	0.312962
960506	0.313029
966051	0.313097
971628	0.313164
977237	0.313232
982879	0.3133
988553	0.313367
994260	0.313435
1e+06	0.313503
1.00577e+06	0.313571
1.01158e+06	0.313638
1.01742e+06	0.313706
1.02329e+06	0.313774
1.0292e+06	0.313842
1.03514e+06	0.313909
1.04112e+06	0.313977
1.04713e+06	0.314045
1.05317e+06	0.314113
1.05925e+06	0.31418
1.06537e+06	0.314248
1.07152e+06	0.314316
1.07771e+06	0.314384
1.08393e+06	0.314452
1.09018e+06	0.31452
1.09648e+06	0.314588
1.10281e+06	0.314656
1.10917e+06	0.314723
1.11558e+06	0.314791
1.12202e+06	0.314859
1.1285e+06	0.314927
1.13501e+06	0.314995
1.14156e+06	0.315063
1.14815e+06	0.315131
1.15478e+06	0.315199
1.16145e+06	0.315267
1.16815e+06	0.315335
1.1749e+06	0.315403
1.18168e+06	0.315471
1.1885e+06	0.315539
1.19536e+06	0.315607
1.20226e+06	0.315676
1.20921e+06	0.315744
1.21619e+06	0.315812
1.22321e+06	0.31588
1.23027e+06	0.315948
1.23737e+06	0.316016
1.24451e+06	0.316084
1.2517e+06	0.316153
1.25893e+06	0.316221
1.26619e+06	0.316289
1.2735e+06	0.316357
1.28086e+06	0.316425
1.28825e+06	0.316494
1.29569e+06	0.316562
1.30317e+06	0.31663
1.31069e+06	0.316698
1.31826e+06	0.316767
1.32587e+06	0.316835
1.33352e+06	0.316903
1.34122e+06	0.316972
1.34896e+06	0.31704
1.35675e+06	0.317108
1.36458e+06	0.317177
1.37246e+06	0.317245
1.38038e+06	0.317314
1.38835e+06	0.317382
1.39637e+06	0.31745
1.40443e+06	0.317519
1.41254e+06	0.317587
1.42069e+06	0.317656
1.42889e+06	0.317724
1.43714e+06	0.317793
1.44544e+06	0.317861
1.45378e+06	0.31793
1.46218e+06	0.317998
1.47062e+06	0.318067
1.47911e+06	0.318135
1.48765e+06	0.318204
1.49624e+06	0.318273
1.50487e+06	0.318341
1.51356e+06	0.31841
1.5223e+06	0.318478
1.53109e+06	0.318547
1.53993e+06	0.318616
1.54882e+06	0.318684
1.55776e+06	0.318753
1.56675e+06	0.318822
1.5758e+06	0.318891
1.58489e+06	0.318959
1.59404e+06	0.319028
1.60325e+06	0.319097
1.6125e+06	0.319166
1.62181e+06	0.319234
1.63117e+06	0.319303
1.64059e+06	0.319372
1.65006e+06	0.319441
1.65959e+06	0.31951
1.66917e+06	0.319578
1.6788e+06	0.319647
1.6885e+06	0.319716
1.69824e+06	0.319785
1.70805e+06	0.319854
1.71791e+06	0.319923
1.72783e+06	0.319992
1.7378e+06	0.320061
1.74783e+06	0.32013
1.75792e+06	0.320199
1.76807e+06	0.320268
1.77828e+06	0.320337
1.78855e+06	0.320406
1.79887e+06	0.320475
1.80926e+06	0.320544
1.8197e+06	0.320613
1.83021e+06	0.320682
1.84077e+06	0.320751
1.8514e+06	0.32082
1.86209e+06	0.320889
1.87284e+06	0.320958
1.88365e+06	0.321028
1.89452e+06	0.321097
1.90546e+06	0.321166
1.91646e+06	0.321235
1.92752e+06	0.321304
1.93865e+06	0.321374
1.94984e+06	0.321443
1.9611e+06	0.321512
1.97242e+06	0.321581
1.98381e+06	0.321651
1.99526e+06	0.32172
2.00678e+06	0.321789
2.01837e+06	0.321859
2.03002e+06	0.321928
2.04174e+06	0.321997
2.05353e+06	0.322067
2.06538e+06	0.322136
2.0773e+06	0.322206
2.0893e+06	0.322275
2.10136e+06	0.322344
2.11349e+06	0.322414
2.12569e+06	0.322483
2.13796e+06	0.322553
2.1503e+06	0.322622
2.16272e+06	0.322692
2.1752e+06	0.322761
2.18776e+06	0.322831
2.20039e+06	0.3229
2.21309e+06	0.32297
2.22587e+06	0.32304
2.23872e+06	0.323109
2.25165e+06	0.323179
2.26464e+06	0.323248
2.27772e+06	0.323318
2.29087e+06	0.323388
2.30409e+06	0.323457
2.31739e+06	0.323527
2.33077e+06	0.323597
2.34423e+06	0.323667
2.35776e+06	0.323736
2.37137e+06	0.323806
2.38506e+06	0.323876
2.39883e+06	0.323946
2.41268e+06	0.324015
2.42661e+06	0.324085
2.44062e+06	0.324155
2.45471e+06	0.324225
2.46888e+06	0.324295
2.48313e+06	0.324365
2.49747e+06	0.324435
2.51189e+06	0.324504
2.52639e+06	0.324574
2.54097e+06	0.324644
2.55564e+06	0.324714
2.5704e+06	0.324784
2.58523e+06	0.324854
2.60016e+06	0.324924
2.61517e+06	0.324994
2.63027e+06	0.325064
2.64545e+06	0.325134
2.66073e+06	0.325204
2.67609e+06	0.325275
2.69153e+06	0.325345
2.70707e+06	0.325415
2.7227e+06	0.325485
2.73842e+06	0.325555
2.75423e+06	0.325625
2.77013e+06	0.325695
2.78612e+06	0.325766
2.80221e+06	0.325836
2.81838e+06	0.325906
2.83465e+06	0.325976
2.85102e+06	0.326046
2.86748e+06	0.326117
2.88403e+06	0.326187
2.90068e+06	0.326257
2.91743e+06	0.326328
2.93427e+06	0.326398
2.95121e+06	0.326468
2.96825e+06	0.326539
2.98538e+06	0.326609
3.00262e+06	0.32668
3.01995e+06	0.32675
3.03739e+06	0.32682
3.05492e+06	0.326891
3.07256e+06	0.326961
3.0903e+06	0.327032
3.10814e+06	0.327102
3.12608e+06	0.327173
3.14413e+06	0.327243
3.16228e+06	0.327314
3.18053e+06	0.327384
3.1989e+06	0.327455
3.21736e+06	0.327526
3.23594e+06	0.327596
3.25462e+06	0.327667
3.27341e+06	0.327738
3.2923e+06	0.327808
3.31131e+06	0.327879
3.33043e+06	0.32795
3.34965e+06	0.32802
3.36899e+06	0.328091
3.38844e+06	0.328162
3.408e+06	0.328232
3.42768e+06	0.328303
3.44747e+06	0.328374
3.46737e+06	0.328445
3.48739e+06	0.328516
3.50752e+06	0.328587
3.52777e+06	0.328657
3.54813e+06	0.328728
3.56862e+06	0.328799
3.58922e+06	0.32887
3.60994e+06	0.328941
3.63078e+06	0.329012
3.65174e+06	0.329083
3.67282e+06	0.329154
3.69403e+06	0.329225
3.71535e+06	0.329296
3.7368e+06	0.329367
3.75837e+06	0.329438
3.78007e+06	0.329509
3.80189e+06	0.32958
3.82384e+06	0.329651
3.84592e+06	0.329722
3.86812e+06	0.329793
3.89045e+06	0.329865
3.91291e+06	0.329936
3.9355e+06	0.330007
3.95822e+06	0.330078
3.98107e+06	0.330149
4.00405e+06	0.330221
4.02717e+06	0.330292
4.05042e+06	0.330363
4.0738e+06	0.330434
4.09732e+06	0.330506
4.12098e+06	0.330577
4.14477e+06	0.330648
4.16869e+06	0.33072
4.19276e+06	0.330791
4.21697e+06	0.330862
4.24131e+06	0.330934
4.2658e+06	0.331005
4.29042e+06	0.331077
4.31519e+06	0.331148
4.3401e+06	0.33122
4.36516e+06	0.331291
4.39036e+06	0.331363
4.4157e+06	0.331434
4.4412e+06	0.331506
4.46684e+06	0.331577
4.49262e+06	0.331649
4.51856e+06	0.33172
4.54465e+06	0.331792
4.57088e+06	0.331864
4.59727e+06	0.331935
4.62381e+06	0.332007
4.6505e+06	0.332079
4.67735e+06	0.33215
4.70435e+06	0.332222
4.73151e+06	0.332294
4.75883e+06	0.332365
4.7863e+06	0.332437
4.81393e+06	0.332509
4.84172e+06	0.332581
4.86968e+06	0.332653
4.89779e+06	0.332724
4.92606e+06	0.332796
4.9545e+06	0.332868
4.9831e+06	0.33294
5.01187e+06	0.333012
5.04081e+06	0.333084
5.06991e+06	0.333156
5.09918e+06	0.333228
5.12861e+06	0.3333
5.15822e+06	0.333372
5.188e+06	0.333444
5.21795e+06	0.333516
5.24807e+06	0.333588
5.27837e+06	0.33366
5.30884e+06	0.333732
5.33949e+06	0.333804
5.37032e+06	0.333876
5.40132e+06	0.333948
5.4325e+06	0.33402
5.46387e+06	0.334093
5.49541e+06	0.334165
5.52713e+06	0.334237
5.55904e+06	0.334309
5.59114e+06	0.334381
5.62341e+06	0.334454
5.65588e+06	0.334526
5.68853e+06	0.334598
5.72137e+06	0.33467
5.7544e+06	0.334743
5.78762e+06	0.334815
5.82103e+06	0.334888
5.85464e+06	0.33496
5.88844e+06	0.335032
5.92243e+06	0.335105
5.95662e+06	0.335177
5.99101e+06	0.33525
6.0256e+06	0.335322
6.06038e+06	0.335395
6.09537e+06	0.335467
6.13056e+06	0.33554
6.16595e+06	0.335612
6.20155e+06	0.335685
6.23735e+06	0.335757
6.27336e+06	0.33583
6.30957e+06	0.335902
6.346e+06	0.335975
6.38263e+06	0.336048
6.41948e+06	0.33612
6.45654e+06	0.336193
6.49382e+06	0.336266
6.53131e+06	0.336338
6.56901e+06	0.336411
6.60693e+06	0.336484
6.64508e+06	0.336557
6.68344e+06	0.33663
6.72202e+06	0.336702
6.76083e+06	0.336775
6.79986e+06	0.336848
6.83912e+06	0.336921
6.8786e+06	0.336994
6.91831e+06	0.337067
6.95825e+06	0.33714
6.99842e+06	0.337212
7.03882e+06	0.337285
7.07946e+06	0.337358
7.12033e+06	0.337431
7.16143e+06	0.337504
7.20278e+06	0.337577
7.24436e+06	0.33765
7.28618e+06	0.337724
7.32825e+06	0.337797
7.37055e+06	0.33787
7.4131e+06	0.337943
7.4559e+06	0.338016
7.49894e+06	0.338089
7.54223e+06	0.338162
7.58578e+06	0.338235
7.62957e+06	0.338309
7.67361e+06	0.338382
7.71792e+06	0.338455
7.76247e+06	0.338528
7.80728e+06	0.338602
7.85236e+06	0.338675
7.89769e+06	0.338748
7.94328e+06	0.338822
7.98914e+06	0.338895
8.03526e+06	0.338968
8.08165e+06	0.339042
8.12831e+06	0.339115
8.17523e+06	0.339189
8.22243e+06	0.339262
8.2699e+06	0.339336
8.31764e+06	0.339409
8.36566e+06	0.339483
8.41395e+06	0.339556
8.46253e+06	0.33963
8.51138e+06	0.339703
8.56052e+06	0.339777
8.60994e+06	0.33985
8.65964e+06	0.339924
8.70964e+06	0.339998
8.75992e+06	0.340071
8.81049e+06	0.340145
8.86135e+06	0.340219
8.91251e+06	0.340292
8.96396e+06	0.340366
9.01571e+06	0.34044
9.06776e+06	0.340514
9.12011e+06	0.340587
9.17276e+06	0.340661
9.22571e+06	0.340735
9.27897e+06	0.340809
9.33254e+06	0.340883
9.38642e+06	0.340957
9.44061e+06	0.34103
9.49511e+06	0.341104
9.54993e+06	0.341178
9.60506e+06	0.341252
9.66051e+06	0.341326
9.71628e+06	0.3414
9.77237e+06	0.341474
9.82879e+06	0.341548
9.88553e+06	0.341622
9.9426e+06	0.341696
1e+07	0.34177
