Stopping power dEdx from Ionisation for mu+ Z = 0 in Water, process name: muIoni
E [MeV]	dEdx [MeV/mm]
0.001	51.209
0.00100577	51.3566
0.00101158	51.5047
0.00101742	51.6531
0.00102329	51.802
0.0010292	51.9513
0.00103514	52.1011
0.00104112	52.2512
0.00104713	52.4018
0.00105317	52.5529
0.00105925	52.7044
0.00106537	52.8563
0.00107152	53.0086
0.00107771	53.1614
0.00108393	53.3146
0.00109018	53.4683
0.00109648	53.6224
0.00110281	53.777
0.00110917	53.932
0.00111558	54.0875
0.00112202	54.2434
0.0011285	54.3997
0.00113501	54.5539
0.00114156	54.6876
0.00114815	54.8215
0.00115478	54.9557
0.00116145	55.0901
0.00116815	55.2248
0.0011749	55.3597
0.00118168	55.4949
0.0011885	55.6304
0.00119536	55.7661
0.00120226	55.902
0.00120921	56.0382
0.00121619	56.1747
0.00122321	56.3114
0.00123027	56.4483
0.00123737	56.5856
0.00124451	56.723
0.0012517	56.8607
0.00125893	56.9987
0.00126619	57.1369
0.0012735	57.2753
0.00128086	57.414
0.00128825	57.5529
0.00129569	57.6921
0.00130317	57.8316
0.00131069	57.9712
0.00131826	58.1111
0.00132587	58.2513
0.00133352	58.3917
0.00134122	58.5323
0.00134896	58.6732
0.00135675	58.8143
0.00136458	58.9557
0.00137246	59.0973
0.00138038	59.2391
0.00138835	59.3812
0.00139637	59.5235
0.00140443	59.666
0.00141254	59.8088
0.00142069	59.9518
0.00142889	60.095
0.00143714	60.2385
0.00144544	60.3822
0.00145378	60.5261
0.00146218	60.6702
0.00147062	60.8146
0.00147911	60.9592
0.00148765	61.104
0.00149624	61.2491
0.00150487	61.3943
0.00151356	61.5398
0.0015223	61.6855
0.00153109	61.8314
0.00153993	61.9776
0.00154882	62.1239
0.00155776	62.2705
0.00156675	62.4173
0.0015758	62.5643
0.00158489	62.7115
0.00159404	62.8589
0.00160325	63.0066
0.0016125	63.1544
0.00162181	63.3024
0.00163117	63.4507
0.00164059	63.5991
0.00165006	63.7478
0.00165959	63.8966
0.00166917	64.0457
0.0016788	64.1949
0.0016885	64.3443
0.00169824	64.494
0.00170805	64.6438
0.00171791	64.7938
0.00172783	64.944
0.0017378	65.0944
0.00174783	65.2449
0.00175792	65.3957
0.00176807	65.5466
0.00177828	65.6977
0.00178855	65.849
0.00179887	66.0005
0.00180926	66.1521
0.0018197	66.3039
0.00183021	66.4559
0.00184077	66.608
0.0018514	66.7604
0.00186209	66.9128
0.00187284	67.0655
0.00188365	67.2183
0.00189452	67.3712
0.00190546	67.5243
0.00191646	67.6776
0.00192752	67.831
0.00193865	67.9846
0.00194984	68.1383
0.0019611	68.2921
0.00197242	68.4461
0.00198381	68.6003
0.00199526	68.7546
0.00200678	68.909
0.00201837	69.0635
0.00203002	69.2182
0.00204174	69.373
0.00205353	69.5279
0.00206538	69.6829
0.0020773	69.8381
0.0020893	69.9933
0.00210136	70.1487
0.00211349	70.3042
0.00212569	70.4598
0.00213796	70.6156
0.0021503	70.7714
0.00216272	70.9273
0.0021752	71.0833
0.00218776	71.2394
0.00220039	71.3956
0.00221309	71.5519
0.00222587	71.7082
0.00223872	71.8647
0.00225165	72.0212
0.00226464	72.1778
0.00227772	72.3345
0.00229087	72.4912
0.00230409	72.648
0.00231739	72.8049
0.00233077	72.9618
0.00234423	73.1188
0.00235776	73.2758
0.00237137	73.4329
0.00238506	73.59
0.00239883	73.7472
0.00241268	73.9044
0.00242661	74.0616
0.00244062	74.2189
0.00245471	74.3762
0.00246888	74.5335
0.00248313	74.6908
0.00249747	74.8482
0.00251189	75.0055
0.00252639	75.1629
0.00254097	75.3202
0.00255564	75.4776
0.0025704	75.6349
0.00258523	75.7923
0.00260016	75.9496
0.00261517	76.1069
0.00263027	76.2642
0.00264545	76.4215
0.00266073	76.5787
0.00267609	76.7359
0.00269153	76.893
0.00270707	77.0502
0.0027227	77.2072
0.00273842	77.3642
0.00275423	77.5211
0.00277013	77.678
0.00278612	77.8348
0.00280221	77.9916
0.00281838	78.1482
0.00283465	78.3048
0.00285102	78.4613
0.00286748	78.6177
0.00288403	78.774
0.00290068	78.9302
0.00291743	79.0863
0.00293427	79.2422
0.00295121	79.3981
0.00296825	79.5538
0.00298538	79.7094
0.00300262	79.8649
0.00301995	80.0202
0.00303739	80.1753
0.00305492	80.3304
0.00307256	80.4852
0.0030903	80.6399
0.00310814	80.7945
0.00312608	80.9488
0.00314413	81.103
0.00316228	81.257
0.00318053	81.4108
0.0031989	81.5644
0.00321736	81.7178
0.00323594	81.871
0.00325462	82.024
0.00327341	82.1767
0.0032923	82.3292
0.00331131	82.4815
0.00333043	82.6336
0.00334965	82.7854
0.00336899	82.9369
0.00338844	83.0882
0.003408	83.2392
0.00342768	83.3899
0.00344747	83.5404
0.00346737	83.6906
0.00348739	83.8404
0.00350752	83.99
0.00352777	84.1393
0.00354813	84.2882
0.00356862	84.4369
0.00358922	84.5852
0.00360994	84.7331
0.00363078	84.8808
0.00365174	85.0281
0.00367282	85.175
0.00369403	85.3215
0.00371535	85.4677
0.0037368	85.6135
0.00375837	85.7589
0.00378007	85.904
0.00380189	86.0486
0.00382384	86.1928
0.00384592	86.3366
0.00386812	86.48
0.00389045	86.6229
0.00391291	86.7654
0.0039355	86.9074
0.00395822	87.049
0.00398107	87.1902
0.00400405	87.3308
0.00402717	87.471
0.00405042	87.6107
0.0040738	87.7499
0.00409732	87.8886
0.00412098	88.0268
0.00414477	88.1644
0.00416869	88.3015
0.00419276	88.4381
0.00421697	88.5742
0.00424131	88.7097
0.0042658	88.8446
0.00429042	88.979
0.00431519	89.1127
0.0043401	89.2459
0.00436516	89.3785
0.00439036	89.5105
0.0044157	89.6419
0.0044412	89.7726
0.00446684	89.9027
0.00449262	90.0322
0.00451856	90.161
0.00454465	90.2892
0.00457088	90.4167
0.00459727	90.5435
0.00462381	90.6696
0.0046505	90.7951
0.00467735	90.9198
0.00470435	91.0438
0.00473151	91.1671
0.00475883	91.2897
0.0047863	91.4115
0.00481393	91.5326
0.00484172	91.6529
0.00486968	91.7724
0.00489779	91.8912
0.00492606	92.0092
0.0049545	92.1263
0.0049831	92.2427
0.00501187	92.3583
0.00504081	92.473
0.00506991	92.5869
0.00509918	92.6999
0.00512861	92.8121
0.00515822	92.9234
0.005188	93.0339
0.00521795	93.1434
0.00524807	93.2521
0.00527837	93.3599
0.00530884	93.4667
0.00533949	93.5727
0.00537032	93.6777
0.00540132	93.7817
0.0054325	93.8848
0.00546387	93.9869
0.00549541	94.0881
0.00552713	94.1883
0.00555904	94.2875
0.00559114	94.3857
0.00562341	94.4829
0.00565588	94.579
0.00568853	94.6741
0.00572137	94.7682
0.0057544	94.8613
0.00578762	94.9532
0.00582103	95.0441
0.00585464	95.134
0.00588844	95.2227
0.00592243	95.3103
0.00595662	95.3968
0.00599101	95.4822
0.0060256	95.5665
0.00606038	95.6496
0.00609537	95.7316
0.00613056	95.8125
0.00616595	95.8921
0.00620155	95.9706
0.00623735	96.0479
0.00627336	96.124
0.00630957	96.1989
0.006346	96.2725
0.00638263	96.345
0.00641948	96.4162
0.00645654	96.4861
0.00649382	96.5548
0.00653131	96.6223
0.00656901	96.6884
0.00660693	96.7533
0.00664508	96.8169
0.00668344	96.8792
0.00672202	96.9402
0.00676083	96.9998
0.00679986	97.0581
0.00683912	97.1151
0.0068786	97.1708
0.00691831	97.225
0.00695825	97.2779
0.00699842	97.3295
0.00703882	97.3796
0.00707946	97.4284
0.00712033	97.4758
0.00716143	97.5217
0.00720278	97.5662
0.00724436	97.6093
0.00728618	97.651
0.00732825	97.6912
0.00737055	97.73
0.0074131	97.7673
0.0074559	97.8031
0.00749894	97.8375
0.00754223	97.8704
0.00758578	97.9018
0.00762957	97.9317
0.00767361	97.96
0.00771792	97.9869
0.00776247	98.0122
0.00780728	98.036
0.00785236	98.0583
0.00789769	98.079
0.00794328	98.0981
0.00798914	98.1157
0.00803526	98.1318
0.00808165	98.1462
0.00812831	98.1591
0.00817523	98.1704
0.00822243	98.1801
0.0082699	98.1882
0.00831764	98.1946
0.00836566	98.1995
0.00841395	98.2028
0.00846253	98.2044
0.00851138	98.2044
0.00856052	98.2027
0.00860994	98.1994
0.00865964	98.1945
0.00870964	98.1879
0.00875992	98.1796
0.00881049	98.1697
0.00886135	98.1581
0.00891251	98.1448
0.00896396	98.1299
0.00901571	98.1132
0.00906776	98.0949
0.00912011	98.0749
0.00917276	98.0532
0.00922571	98.0298
0.00927897	98.0046
0.00933254	97.9778
0.00938642	97.9493
0.00944061	97.919
0.00949511	97.887
0.00954993	97.8533
0.00960506	97.8179
0.00966051	97.7807
0.00971628	97.7419
0.00977237	97.7012
0.00982879	97.6589
0.00988553	97.6148
0.0099426	97.569
0.01	97.5214
0.0100577	97.4721
0.0101158	97.421
0.0101742	97.3682
0.0102329	97.3136
0.010292	97.2573
0.0103514	97.1993
0.0104112	97.1395
0.0104713	97.0779
0.0105317	97.0146
0.0105925	96.9496
0.0106537	96.8828
0.0107152	96.8142
0.0107771	96.7439
0.0108393	96.6719
0.0109018	96.5981
0.0109648	96.5225
0.0110281	96.4452
0.0110917	96.3662
0.0111558	96.2854
0.0112202	96.2029
0.011285	96.1187
0.0113501	96.0327
0.0114156	95.9449
0.0114815	95.8555
0.0115478	95.7643
0.0116145	95.6714
0.0116815	95.5768
0.011749	95.4804
0.0118168	95.3824
0.011885	95.2826
0.0119536	95.1811
0.0120226	95.0779
0.0120921	94.9731
0.0121619	94.8665
0.0122321	94.7582
0.0123027	94.6483
0.0123737	94.5366
0.0124451	94.4233
0.012517	94.3084
0.0125893	94.1917
0.0126619	94.0734
0.012735	93.9535
0.0128086	93.8319
0.0128825	93.7087
0.0129569	93.5838
0.0130317	93.4574
0.0131069	93.3293
0.0131826	93.1996
0.0132587	93.0683
0.0133352	92.9354
0.0134122	92.8009
0.0134896	92.6648
0.0135675	92.5272
0.0136458	92.388
0.0137246	92.2472
0.0138038	92.1049
0.0138835	91.9611
0.0139637	91.8157
0.0140443	91.6689
0.0141254	91.5205
0.0142069	91.3706
0.0142889	91.2193
0.0143714	91.0664
0.0144544	90.9121
0.0145378	90.7563
0.0146218	90.5991
0.0147062	90.4405
0.0147911	90.2804
0.0148765	90.1189
0.0149624	89.956
0.0150487	89.7918
0.0151356	89.6261
0.015223	89.4591
0.0153109	89.2907
0.0153993	89.121
0.0154882	88.9499
0.0155776	88.7776
0.0156675	88.6039
0.015758	88.4289
0.0158489	88.2527
0.0159404	88.0752
0.0160325	87.8964
0.016125	87.7164
0.0162181	87.5351
0.0163117	87.3527
0.0164059	87.169
0.0165006	86.9842
0.0165959	86.7982
0.0166917	86.611
0.016788	86.4227
0.016885	86.2332
0.0169824	86.0427
0.0170805	85.851
0.0171791	85.6582
0.0172783	85.4644
0.017378	85.2695
0.0174783	85.0736
0.0175792	84.8766
0.0176807	84.6786
0.0177828	84.4797
0.0178855	84.2797
0.0179887	84.0788
0.0180926	83.8769
0.018197	83.6741
0.0183021	83.4703
0.0184077	83.2657
0.018514	83.0602
0.0186209	82.8538
0.0187284	82.6465
0.0188365	82.4384
0.0189452	82.2294
0.0190546	82.0197
0.0191646	81.8091
0.0192752	81.5978
0.0193865	81.3857
0.0194984	81.1729
0.019611	80.9593
0.0197242	80.745
0.0198381	80.53
0.0199526	80.3143
0.0200678	80.098
0.0201837	79.881
0.0203002	79.6633
0.0204174	79.4451
0.0205353	79.2262
0.0206538	79.0068
0.020773	78.7868
0.020893	78.5662
0.0210136	78.3451
0.0211349	78.1234
0.0212569	77.9013
0.0213796	77.6787
0.021503	77.4556
0.0216272	77.232
0.021752	77.008
0.0218776	76.7835
0.0220039	76.5587
0.0221309	76.3335
0.0222587	76.1078
0.0223872	75.8818
0.0225165	75.6555
0.0226464	75.4288
0.0227772	75.2018
0.0229087	74.9745
0.0230409	74.747
0.0231739	74.5191
0.0233077	74.291
0.0234423	74.0626
0.0235776	73.8341
0.0237137	73.6053
0.0238506	73.3763
0.0239883	73.1471
0.0241268	72.9178
0.0242661	72.6883
0.0244062	72.4587
0.0245471	72.229
0.0246888	71.9991
0.0248313	71.7692
0.0249747	71.5391
0.0251189	71.309
0.0252639	71.0789
0.0254097	70.8487
0.0255564	70.6185
0.025704	70.3883
0.0258523	70.1581
0.0260016	69.9279
0.0261517	69.6977
0.0263027	69.4676
0.0264545	69.2375
0.0266073	69.0075
0.0267609	68.7776
0.0269153	68.5477
0.0270707	68.318
0.027227	68.0884
0.0273842	67.8589
0.0275423	67.6296
0.0277013	67.4004
0.0278612	67.1714
0.0280221	66.9426
0.0281838	66.7139
0.0283465	66.4855
0.0285102	66.2572
0.0286748	66.0292
0.0288403	65.8014
0.0290068	65.5739
0.0291743	65.3466
0.0293427	65.1196
0.0295121	64.8928
0.0296825	64.6664
0.0298538	64.4402
0.0300262	64.2144
0.0301995	63.9888
0.0303739	63.7636
0.0305492	63.5387
0.0307256	63.3142
0.030903	63.09
0.0310814	62.8662
0.0312608	62.6427
0.0314413	62.4197
0.0316228	62.197
0.0318053	61.9747
0.031989	61.7528
0.0321736	61.5313
0.0323594	61.3103
0.0325462	61.0897
0.0327341	60.8695
0.032923	60.6497
0.0331131	60.4304
0.0333043	60.2116
0.0334965	59.9932
0.0336899	59.7753
0.0338844	59.5578
0.03408	59.3409
0.0342768	59.1244
0.0344747	58.9085
0.0346737	58.693
0.0348739	58.478
0.0350752	58.2636
0.0352777	58.0497
0.0354813	57.8363
0.0356862	57.6234
0.0358922	57.4111
0.0360994	57.1993
0.0363078	56.988
0.0365174	56.7773
0.0367282	56.5672
0.0369403	56.3576
0.0371535	56.1486
0.037368	55.9401
0.0375837	55.7322
0.0378007	55.5249
0.0380189	55.3182
0.0382384	55.112
0.0384592	54.9065
0.0386812	54.7015
0.0389045	54.4971
0.0391291	54.2933
0.039355	54.0902
0.0395822	53.8876
0.0398107	53.6856
0.0400405	53.4842
0.0402717	53.2834
0.0405042	53.0833
0.040738	52.8837
0.0409732	52.6848
0.0412098	52.4865
0.0414477	52.2888
0.0416869	52.0918
0.0419276	51.8953
0.0421697	51.6995
0.0424131	51.5043
0.042658	51.3098
0.0429042	51.1158
0.0431519	50.9225
0.043401	50.7299
0.0436516	50.5378
0.0439036	50.3464
0.044157	50.1557
0.044412	49.9655
0.0446684	49.776
0.0449262	49.5872
0.0451856	49.399
0.0454465	49.2114
0.0457088	49.0244
0.0459727	48.8381
0.0462381	48.6525
0.046505	48.4674
0.0467735	48.283
0.0470435	48.0993
0.0473151	47.9162
0.0475883	47.7337
0.047863	47.5519
0.0481393	47.3706
0.0484172	47.1901
0.0486968	47.0102
0.0489779	46.8309
0.0492606	46.6522
0.049545	46.4742
0.049831	46.2968
0.0501187	46.12
0.0504081	45.9439
0.0506991	45.7684
0.0509918	45.5935
0.0512861	45.4193
0.0515822	45.2457
0.05188	45.0727
0.0521795	44.9004
0.0524807	44.7286
0.0527837	44.5575
0.0530884	44.387
0.0533949	44.2171
0.0537032	44.0479
0.0540132	43.8793
0.054325	43.7113
0.0546387	43.5438
0.0549541	43.3771
0.0552713	43.2109
0.0555904	43.0453
0.0559114	42.8803
0.0562341	42.716
0.0565588	42.5522
0.0568853	42.3891
0.0572137	42.2265
0.057544	42.0646
0.0578762	41.9032
0.0582103	41.7425
0.0585464	41.5823
0.0588844	41.4227
0.0592243	41.2638
0.0595662	41.1054
0.0599101	40.9476
0.060256	40.7903
0.0606038	40.6337
0.0609537	40.4776
0.0613056	40.3221
0.0616595	40.1672
0.0620155	40.0129
0.0623735	39.8591
0.0627336	39.7059
0.0630957	39.5533
0.06346	39.4012
0.0638263	39.2497
0.0641948	39.0988
0.0645654	38.9484
0.0649382	38.7985
0.0653131	38.6493
0.0656901	38.5005
0.0660693	38.3524
0.0664508	38.2047
0.0668344	38.0576
0.0672202	37.9111
0.0676083	37.7651
0.0679986	37.6196
0.0683912	37.4747
0.068786	37.3303
0.0691831	37.1864
0.0695825	37.0431
0.0699842	36.9003
0.0703882	36.758
0.0707946	36.6163
0.0712033	36.475
0.0716143	36.3343
0.0720278	36.1941
0.0724436	36.0544
0.0728618	35.9152
0.0732825	35.7766
0.0737055	35.6384
0.074131	35.5008
0.074559	35.3636
0.0749894	35.227
0.0754223	35.0908
0.0758578	34.9552
0.0762957	34.82
0.0767361	34.6853
0.0771792	34.5511
0.0776247	34.4175
0.0780728	34.2842
0.0785236	34.1515
0.0789769	34.0193
0.0794328	33.8875
0.0798914	33.7562
0.0803526	33.6254
0.0808165	33.4951
0.0812831	33.3652
0.0817523	33.2358
0.0822243	33.1069
0.082699	32.9784
0.0831764	32.8504
0.0836566	32.7229
0.0841395	32.5958
0.0846253	32.4692
0.0851138	32.343
0.0856052	32.2173
0.0860994	32.092
0.0865964	31.9672
0.0870964	31.8428
0.0875992	31.7189
0.0881049	31.5954
0.0886135	31.4724
0.0891251	31.3498
0.0896396	31.2276
0.0901571	31.1059
0.0906776	30.9846
0.0912011	30.8637
0.0917276	30.7433
0.0922571	30.6233
0.0927897	30.5037
0.0933254	30.3846
0.0938642	30.2658
0.0944061	30.1475
0.0949511	30.0296
0.0954993	29.9121
0.0960506	29.7951
0.0966051	29.6784
0.0971628	29.5622
0.0977237	29.4464
0.0982879	29.331
0.0988553	29.216
0.099426	29.1014
0.1	28.9872
0.100577	28.8734
0.101158	28.76
0.101742	28.647
0.102329	28.5344
0.10292	28.4222
0.103514	28.3104
0.104112	28.199
0.104713	28.088
0.105317	27.9773
0.105925	27.8671
0.106537	27.7572
0.107152	27.6478
0.107771	27.5387
0.108393	27.43
0.109018	27.3217
0.109648	27.2137
0.110281	27.1061
0.110917	26.9989
0.111558	26.8921
0.112202	26.7857
0.11285	26.6796
0.113501	26.5739
0.114156	26.4686
0.114815	26.3636
0.115478	26.259
0.116145	26.1548
0.116815	26.0509
0.11749	25.9474
0.118168	25.8443
0.11885	25.7415
0.119536	25.6391
0.120226	25.537
0.120921	25.4353
0.121619	25.3339
0.122321	25.2329
0.123027	25.1323
0.123737	25.032
0.124451	24.932
0.12517	24.8324
0.125893	24.7332
0.126619	24.6343
0.12735	24.5357
0.128086	24.4375
0.128825	24.3396
0.129569	24.2421
0.130317	24.1449
0.131069	24.048
0.131826	23.9515
0.132587	23.8553
0.133352	23.7595
0.134122	23.664
0.134896	23.5688
0.135675	23.474
0.136458	23.3795
0.137246	23.2853
0.138038	23.1914
0.138835	23.0979
0.139637	23.0047
0.140443	22.9118
0.141254	22.8193
0.142069	22.7271
0.142889	22.6352
0.143714	22.5436
0.144544	22.4523
0.145378	22.3614
0.146218	22.2708
0.147062	22.1805
0.147911	22.0905
0.148765	22.0008
0.149624	21.9114
0.150487	21.8224
0.151356	21.7337
0.15223	21.6453
0.153109	21.5571
0.153993	21.4694
0.154882	21.3819
0.155776	21.2947
0.156675	21.2078
0.15758	21.1212
0.158489	21.035
0.159404	20.949
0.160325	20.8634
0.16125	20.778
0.162181	20.693
0.163117	20.6082
0.164059	20.5238
0.165006	20.4396
0.165959	20.3558
0.166917	20.2722
0.16788	20.189
0.16885	20.106
0.169824	20.0233
0.170805	19.9409
0.171791	19.8589
0.172783	19.7771
0.17378	19.6956
0.174783	19.6144
0.175792	19.5334
0.176807	19.4528
0.177828	19.3725
0.178855	19.2924
0.179887	19.2126
0.180926	19.1331
0.18197	19.0539
0.183021	18.975
0.184077	18.8964
0.18514	18.818
0.186209	18.7399
0.187284	18.6621
0.188365	18.5846
0.189452	18.5074
0.190546	18.4304
0.191646	18.3537
0.192752	18.2773
0.193865	18.2012
0.194984	18.1253
0.19611	18.0498
0.197242	17.9745
0.198381	17.8994
0.199526	17.8246
0.200678	17.7484
0.201837	17.6738
0.203002	17.597
0.204174	17.5206
0.205353	17.4445
0.206538	17.3686
0.20773	17.2931
0.20893	17.2179
0.210136	17.143
0.211349	17.0684
0.212569	16.9941
0.213796	16.9201
0.21503	16.8464
0.216272	16.773
0.21752	16.6999
0.218776	16.6271
0.220039	16.5545
0.221309	16.4823
0.222587	16.4104
0.223872	16.3388
0.225165	16.2674
0.226464	16.1964
0.227772	16.1256
0.229087	16.0551
0.230409	15.985
0.231739	15.9151
0.233077	15.8455
0.234423	15.7775
0.235776	15.7085
0.237137	15.6398
0.238506	15.5713
0.239883	15.5031
0.241268	15.4352
0.242661	15.3676
0.244062	15.3003
0.245471	15.2332
0.246888	15.1664
0.248313	15.0999
0.249747	15.0337
0.251189	14.9706
0.252639	14.9049
0.254097	14.8395
0.255564	14.7743
0.25704	14.7094
0.258523	14.6448
0.260016	14.5804
0.261517	14.5163
0.263027	14.4525
0.264545	14.3889
0.266073	14.3256
0.267609	14.2626
0.269153	14.1998
0.270707	14.1373
0.27227	14.075
0.273842	14.013
0.275423	13.9512
0.277013	13.8897
0.278612	13.8285
0.280221	13.7675
0.281838	13.7068
0.283465	13.6057
0.285102	13.5485
0.286748	13.488
0.288403	13.4277
0.290068	13.3676
0.291743	13.3078
0.293427	13.2483
0.295121	13.189
0.296825	13.1299
0.298538	13.0711
0.300262	13.0126
0.301995	12.9542
0.303739	12.8962
0.305492	12.8383
0.307256	12.7807
0.30903	12.7234
0.310814	12.6663
0.312608	12.6094
0.314413	12.5528
0.316228	12.4964
0.318053	12.4402
0.31989	12.3843
0.321736	12.3286
0.323594	12.2731
0.325462	12.2179
0.327341	12.1629
0.32923	12.1081
0.331131	12.0536
0.333043	11.9993
0.334965	11.9452
0.336899	11.9024
0.338844	11.8487
0.3408	11.7953
0.342768	11.742
0.344747	11.689
0.346737	11.6362
0.348739	11.5837
0.350752	11.5313
0.352777	11.4792
0.354813	11.4273
0.356862	11.3756
0.358922	11.3241
0.360994	11.2729
0.363078	11.2218
0.365174	11.171
0.367282	11.1204
0.369403	11.07
0.371535	11.0198
0.37368	10.9699
0.375837	10.9201
0.378007	10.8706
0.380189	10.8212
0.382384	10.7721
0.384592	10.7232
0.386812	10.6745
0.389045	10.626
0.391291	10.5777
0.39355	10.5296
0.395822	10.4818
0.398107	10.4357
0.400405	10.3898
0.402717	10.3441
0.405042	10.2985
0.40738	10.2532
0.409732	10.208
0.412098	10.1629
0.414477	10.1181
0.416869	10.0734
0.419276	10.0289
0.421697	9.98459
0.424131	9.94043
0.42658	9.89645
0.429042	9.85264
0.431519	9.809
0.43401	9.76554
0.436516	9.72224
0.439036	9.67912
0.44157	9.63616
0.44412	9.59338
0.446684	9.55077
0.449262	9.50832
0.451856	9.46605
0.454465	9.42394
0.457088	9.382
0.459727	9.34023
0.462381	9.29862
0.46505	9.25718
0.467735	9.21591
0.470435	9.17481
0.473151	9.13387
0.475883	9.09309
0.47863	9.05248
0.481393	9.01203
0.484172	8.97175
0.486968	8.93164
0.489779	8.89168
0.492606	8.85189
0.49545	8.81226
0.49831	8.77279
0.501187	8.73349
0.504081	8.7031
0.506991	8.66402
0.509918	8.62509
0.512861	8.58632
0.515822	8.54772
0.5188	8.50927
0.521795	8.47098
0.524807	8.43285
0.527837	8.39488
0.530884	8.35707
0.533949	8.31941
0.537032	8.28191
0.540132	8.24457
0.54325	8.20738
0.546387	8.17035
0.549541	8.13347
0.552713	8.09674
0.555904	8.06017
0.559114	8.02375
0.562341	7.98749
0.565588	7.95138
0.568853	7.91542
0.572137	7.87961
0.57544	7.84395
0.578762	7.80844
0.582103	7.77308
0.585464	7.73787
0.588844	7.70281
0.592243	7.6679
0.595662	7.63313
0.599101	7.59852
0.60256	7.56405
0.606038	7.52972
0.609537	7.49555
0.613056	7.46151
0.616595	7.42762
0.620155	7.39388
0.623735	7.36028
0.627336	7.32683
0.630957	7.29351
0.6346	7.26034
0.638263	7.22731
0.641948	7.19442
0.645654	7.16168
0.649382	7.12907
0.653131	7.0966
0.656901	7.06428
0.660693	7.03209
0.664508	7.00004
0.668344	6.96813
0.672202	6.93635
0.676083	6.90471
0.679986	6.87321
0.683912	6.84185
0.68786	6.81062
0.691831	6.77952
0.695825	6.74856
0.699842	6.71773
0.703882	6.68704
0.707946	6.65648
0.712033	6.62605
0.716143	6.59576
0.720278	6.56559
0.724436	6.53556
0.728618	6.50566
0.732825	6.47588
0.737055	6.44624
0.74131	6.41673
0.74559	6.38734
0.749894	6.35808
0.754223	6.32895
0.758578	6.29995
0.762957	6.27107
0.767361	6.24232
0.771792	6.2137
0.776247	6.1852
0.780728	6.15683
0.785236	6.12858
0.789769	6.10045
0.794328	6.07245
0.798914	6.04457
0.803526	6.01681
0.808165	5.98918
0.812831	5.96166
0.817523	5.93427
0.822243	5.907
0.82699	5.87984
0.831764	5.85281
0.836566	5.8259
0.841395	5.7991
0.846253	5.77519
0.851138	5.74858
0.856052	5.72208
0.860994	5.69571
0.865964	5.66945
0.870964	5.64331
0.875992	5.61728
0.881049	5.59137
0.886135	5.56557
0.891251	5.53989
0.896396	5.51432
0.901571	5.48887
0.906776	5.46353
0.912011	5.4383
0.917276	5.41318
0.922571	5.38817
0.927897	5.36328
0.933254	5.3385
0.938642	5.31382
0.944061	5.28926
0.949511	5.2648
0.954993	5.24046
0.960506	5.21622
0.966051	5.19209
0.971628	5.16807
0.977237	5.14416
0.982879	5.12035
0.988553	5.09665
0.99426	5.07306
1	5.04957
1.00577	5.02618
1.01158	5.00291
1.01742	4.97973
1.02329	4.95666
1.0292	4.93369
1.03514	4.91083
1.04112	4.88806
1.04713	4.8654
1.05317	4.84285
1.05925	4.82039
1.06537	4.79803
1.07152	4.77578
1.07771	4.75362
1.08393	4.73157
1.09018	4.70961
1.09648	4.68775
1.10281	4.66599
1.10917	4.64433
1.11558	4.62277
1.12202	4.60131
1.1285	4.57994
1.13501	4.55866
1.14156	4.53749
1.14815	4.51641
1.15478	4.49542
1.16145	4.47453
1.16815	4.45373
1.1749	4.43303
1.18168	4.41242
1.1885	4.39356
1.19536	4.37311
1.20226	4.35275
1.20921	4.33249
1.21619	4.31232
1.22321	4.29224
1.23027	4.27225
1.23737	4.25235
1.24451	4.23254
1.2517	4.21283
1.25893	4.1932
1.26619	4.17366
1.2735	4.15421
1.28086	4.13485
1.28825	4.11558
1.29569	4.09639
1.30317	4.0773
1.31069	4.05829
1.31826	4.03936
1.32587	4.02053
1.33352	4.00178
1.34122	3.98311
1.34896	3.96453
1.35675	3.94604
1.36458	3.92763
1.37246	3.9093
1.38038	3.89106
1.38835	3.87291
1.39637	3.85483
1.40443	3.83684
1.41254	3.81893
1.42069	3.8011
1.42889	3.78336
1.43714	3.76569
1.44544	3.74811
1.45378	3.73061
1.46218	3.71319
1.47062	3.69584
1.47911	3.67858
1.48765	3.6614
1.49624	3.6443
1.50487	3.62727
1.51356	3.61033
1.5223	3.59346
1.53109	3.57667
1.53993	3.55995
1.54882	3.54332
1.55776	3.52676
1.56675	3.51028
1.5758	3.49387
1.58489	3.47754
1.59404	3.46128
1.60325	3.4451
1.6125	3.429
1.62181	3.41297
1.63117	3.39701
1.64059	3.38113
1.65006	3.36532
1.65959	3.34958
1.66917	3.33392
1.6788	3.31833
1.6885	3.30281
1.69824	3.28736
1.70805	3.27199
1.71791	3.25669
1.72783	3.24146
1.7378	3.22631
1.74783	3.21122
1.75792	3.19621
1.76807	3.18126
1.77828	3.16638
1.78855	3.15158
1.79887	3.13684
1.80926	3.12217
1.8197	3.10756
1.83021	3.09303
1.84077	3.07856
1.8514	3.06416
1.86209	3.04983
1.87284	3.03556
1.88365	3.02136
1.89452	3.00722
1.90546	2.99316
1.91646	2.97915
1.92752	2.96521
1.93865	2.95134
1.94984	2.93753
1.9611	2.92379
1.97242	2.91011
1.98381	2.89649
1.99526	2.88294
2.00678	2.86945
2.01837	2.85602
2.03002	2.84266
2.04174	2.82935
2.05353	2.81611
2.06538	2.80294
2.0773	2.78982
2.0893	2.77677
2.10136	2.76377
2.11349	2.75084
2.12569	2.73796
2.13796	2.72515
2.1503	2.7124
2.16272	2.69971
2.1752	2.68707
2.18776	2.6745
2.20039	2.66198
2.21309	2.64953
2.22587	2.63713
2.23872	2.62479
2.25165	2.6125
2.26464	2.60028
2.27772	2.58811
2.29087	2.576
2.30409	2.56395
2.31739	2.55195
2.33077	2.54001
2.34423	2.52813
2.35776	2.5163
2.37137	2.50452
2.38506	2.49281
2.39883	2.48114
2.41268	2.46954
2.42661	2.45798
2.44062	2.44649
2.45471	2.43504
2.46888	2.42365
2.48313	2.41231
2.49747	2.40103
2.51189	2.3898
2.52639	2.37862
2.54097	2.3675
2.55564	2.35643
2.5704	2.34541
2.58523	2.33444
2.60016	2.32352
2.61517	2.31266
2.63027	2.30185
2.64545	2.29109
2.66073	2.28038
2.67609	2.26972
2.69153	2.25911
2.70707	2.24855
2.7227	2.23804
2.73842	2.22758
2.75423	2.21717
2.77013	2.20681
2.78612	2.1965
2.80221	2.18623
2.81838	2.17602
2.83465	2.16585
2.85102	2.15574
2.86748	2.14567
2.88403	2.13565
2.90068	2.12567
2.91743	2.11575
2.93427	2.10587
2.95121	2.09603
2.96825	2.08625
2.98538	2.07651
3.00262	2.06682
3.01995	2.05717
3.03739	2.04757
3.05492	2.03801
3.07256	2.02851
3.0903	2.01904
3.10814	2.00962
3.12608	2.00025
3.14413	1.99092
3.16228	1.98163
3.18053	1.97239
3.1989	1.9632
3.21736	1.95404
3.23594	1.94494
3.25462	1.93587
3.27341	1.92685
3.2923	1.91787
3.31131	1.90893
3.33043	1.90004
3.34965	1.89119
3.36899	1.88238
3.38844	1.87361
3.408	1.86489
3.42768	1.85621
3.44747	1.84757
3.46737	1.83897
3.48739	1.83041
3.50752	1.82189
3.52777	1.81342
3.54813	1.80498
3.56862	1.79658
3.58922	1.78823
3.60994	1.77991
3.63078	1.77164
3.65174	1.7634
3.67282	1.75521
3.69403	1.74705
3.71535	1.73893
3.7368	1.73086
3.75837	1.72282
3.78007	1.71482
3.80189	1.70685
3.82384	1.69893
3.84592	1.69104
3.86812	1.6832
3.89045	1.67539
3.91291	1.66761
3.9355	1.65988
3.95822	1.65218
3.98107	1.64452
4.00405	1.6369
4.02717	1.62931
4.05042	1.62176
4.0738	1.61425
4.09732	1.60677
4.12098	1.59933
4.14477	1.59192
4.16869	1.58455
4.19276	1.57722
4.21697	1.56992
4.24131	1.56266
4.2658	1.55543
4.29042	1.54824
4.31519	1.54108
4.3401	1.53396
4.36516	1.52687
4.39036	1.51981
4.4157	1.51279
4.4412	1.5058
4.46684	1.49885
4.49262	1.49193
4.51856	1.48505
4.54465	1.47819
4.57088	1.47138
4.59727	1.46459
4.62381	1.45784
4.6505	1.45112
4.67735	1.44443
4.70435	1.43777
4.73151	1.43115
4.75883	1.42456
4.7863	1.418
4.81393	1.41148
4.84172	1.40498
4.86968	1.39852
4.89779	1.39209
4.92606	1.38569
4.9545	1.37932
4.9831	1.37298
5.01187	1.36667
5.04081	1.36039
5.06991	1.35415
5.09918	1.34793
5.12861	1.34175
5.15822	1.33559
5.188	1.32947
5.21795	1.32337
5.24807	1.31731
5.27837	1.31127
5.30884	1.30527
5.33949	1.29929
5.37032	1.29334
5.40132	1.28742
5.4325	1.28153
5.46387	1.27567
5.49541	1.26984
5.52713	1.26404
5.55904	1.25826
5.59114	1.25251
5.62341	1.2468
5.65588	1.2411
5.68853	1.23544
5.72137	1.22981
5.7544	1.2242
5.78762	1.21862
5.82103	1.21307
5.85464	1.20754
5.88844	1.20204
5.92243	1.19657
5.95662	1.19113
5.99101	1.18571
6.0256	1.18032
6.06038	1.17495
6.09537	1.16962
6.13056	1.1643
6.16595	1.15902
6.20155	1.15376
6.23735	1.14853
6.27336	1.14332
6.30957	1.13814
6.346	1.13298
6.38263	1.12785
6.41948	1.12274
6.45654	1.11766
6.49382	1.1126
6.53131	1.10757
6.56901	1.10257
6.60693	1.09759
6.64508	1.09263
6.68344	1.0877
6.72202	1.08279
6.76083	1.0779
6.79986	1.07304
6.83912	1.06821
6.8786	1.0634
6.91831	1.05861
6.95825	1.05385
6.99842	1.0491
7.03882	1.04439
7.07946	1.03969
7.12033	1.03502
7.16143	1.03038
7.20278	1.02575
7.24436	1.02115
7.28618	1.01657
7.32825	1.01202
7.37055	1.00748
7.4131	1.00297
7.4559	0.998484
7.49894	0.994018
7.54223	0.989574
7.58578	0.985152
7.62957	0.980752
7.67361	0.976374
7.71792	0.972018
7.76247	0.967684
7.80728	0.963371
7.85236	0.959079
7.89769	0.954809
7.94328	0.95056
7.98914	0.946333
8.03526	0.942126
8.08165	0.93794
8.12831	0.933776
8.17523	0.929632
8.22243	0.925509
8.2699	0.921406
8.31764	0.917324
8.36566	0.913262
8.41395	0.90922
8.46253	0.905199
8.51138	0.901198
8.56052	0.897217
8.60994	0.893255
8.65964	0.889314
8.70964	0.885392
8.75992	0.88149
8.81049	0.877607
8.86135	0.873744
8.91251	0.8699
8.96396	0.866076
9.01571	0.862271
9.06776	0.858484
9.12011	0.854717
9.17276	0.850969
9.22571	0.847239
9.27897	0.843528
9.33254	0.839836
9.38642	0.836163
9.44061	0.832508
9.49511	0.828871
9.54993	0.825252
9.60506	0.821652
9.66051	0.81807
9.71628	0.814506
9.77237	0.81096
9.82879	0.807432
9.88553	0.803921
9.9426	0.800428
10	0.796953
10.0577	0.793495
10.1158	0.790055
10.1742	0.786632
10.2329	0.783227
10.292	0.779838
10.3514	0.776467
10.4112	0.773113
10.4713	0.769776
10.5317	0.766455
10.5925	0.763152
10.6537	0.759865
10.7152	0.756595
10.7771	0.753341
10.8393	0.750104
10.9018	0.746883
10.9648	0.743679
11.0281	0.740491
11.0917	0.737319
11.1558	0.734163
11.2202	0.731023
11.285	0.727899
11.3501	0.724791
11.4156	0.721699
11.4815	0.718623
11.5478	0.715562
11.6145	0.712516
11.6815	0.709487
11.749	0.706472
11.8168	0.703473
11.885	0.70049
11.9536	0.697521
12.0226	0.694568
12.0921	0.69163
12.1619	0.688706
12.2321	0.685798
12.3027	0.682904
12.3737	0.680026
12.4451	0.677162
12.517	0.674312
12.5893	0.671477
12.6619	0.668657
12.735	0.665851
12.8086	0.66306
12.8825	0.660282
12.9569	0.657519
13.0317	0.654771
13.1069	0.652036
13.1826	0.649315
13.2587	0.646609
13.3352	0.643916
13.4122	0.641237
13.4896	0.638572
13.5675	0.63592
13.6458	0.633282
13.7246	0.630658
13.8038	0.628047
13.8835	0.62545
13.9637	0.622866
14.0443	0.620295
14.1254	0.617738
14.2069	0.615193
14.2889	0.612662
14.3714	0.610144
14.4544	0.607639
14.5378	0.605147
14.6218	0.602668
14.7062	0.600202
14.7911	0.597748
14.8765	0.595307
14.9624	0.592879
15.0487	0.590463
15.1356	0.58806
15.223	0.585669
15.3109	0.583291
15.3993	0.580925
15.4882	0.578571
15.5776	0.57623
15.6675	0.573901
15.758	0.571583
15.8489	0.569278
15.9404	0.566985
16.0325	0.564704
16.125	0.562435
16.2181	0.560177
16.3117	0.557931
16.4059	0.555697
16.5006	0.553475
16.5959	0.551264
16.6917	0.549065
16.788	0.546877
16.885	0.544701
16.9824	0.542536
17.0805	0.540383
17.1791	0.53824
17.2783	0.536109
17.378	0.533989
17.4783	0.531881
17.5792	0.529783
17.6807	0.527696
17.7828	0.52562
17.8855	0.523556
17.9887	0.521502
18.0926	0.519458
18.197	0.517426
18.3021	0.515404
18.4077	0.513393
18.514	0.511393
18.6209	0.509403
18.7284	0.507423
18.8365	0.505454
18.9452	0.503496
19.0546	0.501547
19.1646	0.49961
19.2752	0.497682
19.3865	0.495764
19.4984	0.493857
19.611	0.49196
19.7242	0.490073
19.8381	0.488196
19.9526	0.486328
20.0678	0.484471
20.1837	0.482624
20.3002	0.480786
20.4174	0.478959
20.5353	0.477141
20.6538	0.475332
20.773	0.473533
20.893	0.471744
21.0136	0.469965
21.1349	0.468195
21.2569	0.466434
21.3796	0.464683
21.503	0.462941
21.6272	0.461209
21.752	0.459485
21.8776	0.457771
22.0039	0.456067
22.1309	0.454371
22.2587	0.452684
22.3872	0.451007
22.5165	0.449338
22.6464	0.447679
22.7772	0.446028
22.9087	0.444387
23.0409	0.442754
23.1739	0.44113
23.3077	0.439515
23.4423	0.437908
23.5776	0.43631
23.7137	0.434721
23.8506	0.433141
23.9883	0.431569
24.1268	0.430005
24.2661	0.42845
24.4062	0.426904
24.5471	0.425366
24.6888	0.423836
24.8313	0.422314
24.9747	0.420801
25.1189	0.419296
25.2639	0.417799
25.4097	0.416311
25.5564	0.41483
25.704	0.413358
25.8523	0.411894
26.0016	0.410437
26.1517	0.408989
26.3027	0.407549
26.4545	0.406116
26.6073	0.404692
26.7609	0.403275
26.9153	0.401866
27.0707	0.400465
27.227	0.399071
27.3842	0.397685
27.5423	0.396307
27.7013	0.394937
27.8612	0.393574
28.0221	0.392218
28.1838	0.39087
28.3465	0.38953
28.5102	0.388196
28.6748	0.386871
28.8403	0.385552
29.0068	0.384241
29.1743	0.382938
29.3427	0.381641
29.5121	0.380352
29.6825	0.37907
29.8538	0.377795
30.0262	0.376527
30.1995	0.375267
30.3739	0.374013
30.5492	0.372767
30.7256	0.371527
30.903	0.370294
31.0814	0.369069
31.2608	0.36785
31.4413	0.366638
31.6228	0.365433
31.8053	0.364234
31.989	0.363043
32.1736	0.361858
32.3594	0.36068
32.5462	0.359508
32.7341	0.358343
32.923	0.357185
33.1131	0.356034
33.3043	0.354888
33.4965	0.35375
33.6899	0.352618
33.8844	0.351492
34.08	0.350373
34.2768	0.34926
34.4747	0.348154
34.6737	0.347053
34.8739	0.34596
35.0752	0.344872
35.2777	0.343791
35.4813	0.342716
35.6862	0.341647
35.8922	0.340584
36.0994	0.339527
36.3078	0.338477
36.5174	0.337433
36.7282	0.336394
36.9403	0.335362
37.1535	0.334335
37.368	0.333315
37.5837	0.3323
37.8007	0.331292
38.0189	0.330289
38.2384	0.329292
38.4592	0.328301
38.6812	0.327316
38.9045	0.326337
39.1291	0.325363
39.355	0.324395
39.5822	0.323433
39.8107	0.322476
40.0405	0.321525
40.2717	0.32058
40.5042	0.31964
40.738	0.318706
40.9732	0.317777
41.2098	0.316854
41.4477	0.315936
41.6869	0.315024
41.9276	0.314117
42.1697	0.313215
42.4131	0.312319
42.658	0.311429
42.9042	0.310543
43.1519	0.309663
43.401	0.308789
43.6516	0.307919
43.9036	0.307055
44.157	0.306196
44.412	0.305342
44.6684	0.304493
44.9262	0.30365
45.1856	0.302811
45.4465	0.301978
45.7088	0.301149
45.9727	0.300326
46.2381	0.299508
46.505	0.298695
46.7735	0.297887
47.0435	0.297083
47.3151	0.296285
47.5883	0.295491
47.863	0.294703
48.1393	0.293919
48.4172	0.29314
48.6968	0.292366
48.9779	0.291597
49.2606	0.290832
49.545	0.290073
49.831	0.289318
50.1187	0.288567
50.4081	0.287822
50.6991	0.287081
50.9918	0.286345
51.2861	0.285613
51.5822	0.284886
51.88	0.284163
52.1795	0.283445
52.4807	0.282732
52.7837	0.282023
53.0884	0.281319
53.3949	0.280619
53.7032	0.279924
54.0132	0.279233
54.325	0.278546
54.6387	0.277864
54.9541	0.277186
55.2713	0.276512
55.5904	0.275843
55.9114	0.275179
56.2341	0.274518
56.5588	0.273862
56.8853	0.27321
57.2137	0.272562
57.544	0.271919
57.8762	0.271279
58.2103	0.270644
58.5464	0.270013
58.8844	0.269386
59.2243	0.268764
59.5662	0.268145
59.9101	0.26753
60.256	0.26692
60.6038	0.266314
60.9537	0.265711
61.3056	0.265113
61.6595	0.264518
62.0155	0.263928
62.3735	0.263342
62.7336	0.262759
63.0957	0.262181
63.46	0.261606
63.8263	0.261035
64.1948	0.260468
64.5654	0.259905
64.9382	0.259346
65.3131	0.258791
65.6901	0.258239
66.0693	0.257691
66.4508	0.257147
66.8344	0.256607
67.2202	0.25607
67.6083	0.255537
67.9986	0.255008
68.3912	0.254483
68.786	0.253961
69.1831	0.253443
69.5825	0.252928
69.9842	0.252417
70.3882	0.25191
70.7946	0.251406
71.2033	0.250906
71.6143	0.250409
72.0278	0.249916
72.4436	0.249427
72.8618	0.248941
73.2825	0.248458
73.7055	0.247979
74.131	0.247503
74.559	0.247031
74.9894	0.246562
75.4223	0.246097
75.8578	0.245635
76.2957	0.245176
76.7361	0.244721
77.1792	0.244269
77.6247	0.243821
78.0728	0.243375
78.5236	0.242933
78.9769	0.242495
79.4328	0.242059
79.8914	0.241627
80.3526	0.241198
80.8165	0.240773
81.2831	0.24035
81.7523	0.239931
82.2243	0.239515
82.699	0.239102
83.1764	0.238692
83.6566	0.238286
84.1395	0.237882
84.6253	0.237482
85.1138	0.237085
85.6052	0.236691
86.0994	0.2363
86.5964	0.235911
87.0964	0.235527
87.5992	0.235145
88.1049	0.234766
88.6135	0.23439
89.1251	0.234017
89.6396	0.233647
90.1571	0.23328
90.6776	0.232916
91.2011	0.232555
91.7276	0.232197
92.2571	0.231841
92.7897	0.231489
93.3254	0.231139
93.8642	0.230793
94.4061	0.230449
94.9511	0.230108
95.4993	0.22977
96.0506	0.229435
96.6051	0.229102
97.1628	0.228773
97.7237	0.228446
98.2879	0.228122
98.8553	0.227801
99.426	0.227482
100	0.227166
100.577	0.226853
101.158	0.226543
101.742	0.226235
102.329	0.22593
102.92	0.225627
103.514	0.225328
104.112	0.225031
104.713	0.224736
105.317	0.224435
105.925	0.224135
106.537	0.223837
107.152	0.223541
107.771	0.223248
108.393	0.222958
109.018	0.22267
109.648	0.222384
110.281	0.222101
110.917	0.22182
111.558	0.221542
112.202	0.221266
112.85	0.220992
113.501	0.220721
114.156	0.220452
114.815	0.220186
115.478	0.219921
116.145	0.21966
116.815	0.2194
117.49	0.219143
118.168	0.218888
118.85	0.218635
119.536	0.218384
120.226	0.218136
120.921	0.21789
121.619	0.217647
122.321	0.217405
123.027	0.217166
123.737	0.216929
124.451	0.216694
125.17	0.216461
125.893	0.216231
126.619	0.216002
127.35	0.215776
128.086	0.215552
128.825	0.21533
129.569	0.21511
130.317	0.214892
131.069	0.214677
131.826	0.214463
132.587	0.214252
133.352	0.214042
134.122	0.213835
134.896	0.21363
135.675	0.213426
136.458	0.213225
137.246	0.213026
138.038	0.212829
138.835	0.212634
139.637	0.21244
140.443	0.212249
141.254	0.21206
142.069	0.211873
142.889	0.211687
143.714	0.211504
144.544	0.211322
145.378	0.211143
146.218	0.210965
147.062	0.210789
147.911	0.210615
148.765	0.210443
149.624	0.210273
150.487	0.210105
151.356	0.209939
152.23	0.209774
153.109	0.209611
153.993	0.20945
154.882	0.209291
155.776	0.209134
156.675	0.208978
157.58	0.208825
158.489	0.208673
159.404	0.208523
160.325	0.208374
161.25	0.208228
162.181	0.208083
163.117	0.20794
164.059	0.207798
165.006	0.207658
165.959	0.20752
166.917	0.207384
167.88	0.207249
168.85	0.207117
169.824	0.206985
170.805	0.206856
171.791	0.206728
172.783	0.206601
173.78	0.206477
174.783	0.206354
175.792	0.206232
176.807	0.206112
177.828	0.205994
178.855	0.205878
179.887	0.205763
180.926	0.205649
181.97	0.205537
183.021	0.205427
184.077	0.205318
185.14	0.205211
186.209	0.205105
187.284	0.205001
188.365	0.204898
189.452	0.204797
190.546	0.204697
191.646	0.204599
192.752	0.204503
193.865	0.204407
194.984	0.204314
196.11	0.204221
197.242	0.204131
198.381	0.204041
199.526	0.203953
200.678	0.203867
201.837	0.203782
203.002	0.203698
204.174	0.203616
205.353	0.203535
206.538	0.203456
207.73	0.203377
208.93	0.203301
210.136	0.203225
211.349	0.203151
212.569	0.203079
213.796	0.203008
215.03	0.202938
216.272	0.202869
217.52	0.202802
218.776	0.202736
220.039	0.202671
221.309	0.202608
222.587	0.202545
223.872	0.202485
225.165	0.202425
226.464	0.202367
227.772	0.20231
229.087	0.202254
230.409	0.202199
231.739	0.202146
233.077	0.202094
234.423	0.202043
235.776	0.201994
237.137	0.201945
238.506	0.201898
239.883	0.201852
241.268	0.201807
242.661	0.201764
244.062	0.201721
245.471	0.20168
246.888	0.20164
248.313	0.201601
249.747	0.201563
251.189	0.201526
252.639	0.201491
254.097	0.201456
255.564	0.201423
257.04	0.201391
258.523	0.20136
260.016	0.20133
261.517	0.201301
263.027	0.201273
264.545	0.201246
266.073	0.20122
267.609	0.201196
269.153	0.201172
270.707	0.20115
272.27	0.201128
273.842	0.201108
275.423	0.201088
277.013	0.20107
278.612	0.201053
280.221	0.201036
281.838	0.201021
283.465	0.201007
285.102	0.200993
286.748	0.200981
288.403	0.20097
290.068	0.200959
291.743	0.20095
293.427	0.200941
295.121	0.200934
296.825	0.200927
298.538	0.200921
300.262	0.200917
301.995	0.200913
303.739	0.20091
305.492	0.200908
307.256	0.200907
309.03	0.200907
310.814	0.200908
312.608	0.200909
314.413	0.200912
316.228	0.200915
318.053	0.20092
319.89	0.200925
321.736	0.200931
323.594	0.200938
325.462	0.200945
327.341	0.200954
329.23	0.200963
331.131	0.200974
333.043	0.200985
334.965	0.200997
336.899	0.201009
338.844	0.201023
340.8	0.201037
342.768	0.201052
344.747	0.201068
346.737	0.201085
348.739	0.201103
350.752	0.201121
352.777	0.20114
354.813	0.20116
356.862	0.20118
358.922	0.201202
360.994	0.201224
363.078	0.201247
365.174	0.20127
367.282	0.201294
369.403	0.201319
371.535	0.201345
373.68	0.201372
375.837	0.201399
378.007	0.201427
380.189	0.201455
382.384	0.201485
384.592	0.201515
386.812	0.201545
389.045	0.201577
391.291	0.201609
393.55	0.201641
395.822	0.201675
398.107	0.201709
400.405	0.201743
402.717	0.201779
405.042	0.201815
407.38	0.201851
409.732	0.201888
412.098	0.201926
414.477	0.201965
416.869	0.202004
419.276	0.202044
421.697	0.202084
424.131	0.202125
426.58	0.202166
429.042	0.202209
431.519	0.202251
434.01	0.202295
436.516	0.202339
439.036	0.202383
441.57	0.202428
444.12	0.202474
446.684	0.20252
449.262	0.202567
451.856	0.202614
454.465	0.202662
457.088	0.20271
459.727	0.202759
462.381	0.202809
465.05	0.202859
467.735	0.202909
470.435	0.20296
473.151	0.203012
475.883	0.203064
478.63	0.203117
481.393	0.20317
484.172	0.203223
486.968	0.203277
489.779	0.203332
492.606	0.203387
495.45	0.203443
498.31	0.203499
501.187	0.203555
504.081	0.203612
506.991	0.20367
509.918	0.203728
512.861	0.203786
515.822	0.203845
518.8	0.203904
521.795	0.203964
524.807	0.204024
527.837	0.204085
530.884	0.204146
533.949	0.204208
537.032	0.20427
540.132	0.204332
543.25	0.204395
546.387	0.204458
549.541	0.204522
552.713	0.204586
555.904	0.20465
559.114	0.204715
562.341	0.20478
565.588	0.204846
568.853	0.204912
572.137	0.204978
575.44	0.205045
578.762	0.205112
582.103	0.20518
585.464	0.205248
588.844	0.205316
592.243	0.205385
595.662	0.205454
599.101	0.205523
602.56	0.205593
606.038	0.205663
609.537	0.205734
613.056	0.205804
616.595	0.205876
620.155	0.205947
623.735	0.206019
627.336	0.206091
630.957	0.206163
634.6	0.206236
638.263	0.206309
641.948	0.206383
645.654	0.206457
649.382	0.206531
653.131	0.206605
656.901	0.20668
660.693	0.206755
664.508	0.20683
668.344	0.206905
672.202	0.206981
676.083	0.207057
679.986	0.207134
683.912	0.207211
687.86	0.207288
691.831	0.207365
695.825	0.207443
699.842	0.20752
703.882	0.207598
707.946	0.207677
712.033	0.207755
716.143	0.207834
720.278	0.207914
724.436	0.207993
728.618	0.208073
732.825	0.208152
737.055	0.208233
741.31	0.208313
745.59	0.208394
749.894	0.208475
754.223	0.208556
758.578	0.208637
762.957	0.208719
767.361	0.2088
771.792	0.208882
776.247	0.208965
780.728	0.209047
785.236	0.20913
789.769	0.209213
794.328	0.209296
798.914	0.209379
803.526	0.209463
808.165	0.209546
812.831	0.20963
817.523	0.209714
822.243	0.209799
826.99	0.209883
831.764	0.209968
836.566	0.210053
841.395	0.210138
846.253	0.210223
851.138	0.210308
856.052	0.210394
860.994	0.21048
865.964	0.210566
870.964	0.210652
875.992	0.210738
881.049	0.210825
886.135	0.210911
891.251	0.210998
896.396	0.211085
901.571	0.211172
906.776	0.21126
912.011	0.211347
917.276	0.211435
922.571	0.211522
927.897	0.21161
933.254	0.211698
938.642	0.211786
944.061	0.211875
949.511	0.211963
954.993	0.212052
960.506	0.212141
966.051	0.212229
971.628	0.212318
977.237	0.212407
982.879	0.212497
988.553	0.212586
994.26	0.212676
1000	0.212765
1005.77	0.212858
1011.58	0.212952
1017.42	0.213046
1023.29	0.21314
1029.2	0.213234
1035.14	0.213328
1041.12	0.213422
1047.13	0.213517
1053.17	0.213611
1059.25	0.213706
1065.37	0.213801
1071.52	0.213895
1077.71	0.21399
1083.93	0.214085
1090.18	0.21418
1096.48	0.214276
1102.81	0.214371
1109.17	0.214466
1115.58	0.214562
1122.02	0.214657
1128.5	0.214753
1135.01	0.214848
1141.56	0.214944
1148.15	0.21504
1154.78	0.215136
1161.45	0.215232
1168.15	0.215328
1174.9	0.215424
1181.68	0.21552
1188.5	0.215616
1195.36	0.215713
1202.26	0.215809
1209.21	0.215906
1216.19	0.216002
1223.21	0.216099
1230.27	0.216195
1237.37	0.216292
1244.51	0.216389
1251.7	0.216486
1258.93	0.216582
1266.19	0.216679
1273.5	0.216776
1280.86	0.216873
1288.25	0.21697
1295.69	0.217067
1303.17	0.217165
1310.69	0.217262
1318.26	0.217359
1325.87	0.217456
1333.52	0.217554
1341.22	0.217651
1348.96	0.217748
1356.75	0.217846
1364.58	0.217943
1372.46	0.218041
1380.38	0.218138
1388.35	0.218236
1396.37	0.218334
1404.43	0.218431
1412.54	0.218529
1420.69	0.218627
1428.89	0.218724
1437.14	0.218822
1445.44	0.21892
1453.78	0.219018
1462.18	0.219115
1470.62	0.219213
1479.11	0.219311
1487.65	0.219409
1496.24	0.219507
1504.87	0.219605
1513.56	0.219703
1522.3	0.219801
1531.09	0.219899
1539.93	0.219997
1548.82	0.220095
1557.76	0.220193
1566.75	0.220291
1575.8	0.220389
1584.89	0.220487
1594.04	0.220585
1603.25	0.220683
1612.5	0.220781
1621.81	0.220879
1631.17	0.220977
1640.59	0.221075
1650.06	0.221173
1659.59	0.221271
1669.17	0.221369
1678.8	0.221467
1688.5	0.221565
1698.24	0.221663
1708.05	0.221761
1717.91	0.221859
1727.83	0.221957
1737.8	0.222055
1747.83	0.222153
1757.92	0.222251
1768.07	0.222349
1778.28	0.222447
1788.55	0.222545
1798.87	0.222643
1809.26	0.222741
1819.7	0.222839
1830.21	0.222937
1840.77	0.223035
1851.4	0.223133
1862.09	0.223231
1872.84	0.223329
1883.65	0.223427
1894.52	0.223524
1905.46	0.223622
1916.46	0.22372
1927.52	0.223818
1938.65	0.223916
1949.84	0.224013
1961.1	0.224111
1972.42	0.224209
1983.81	0.224306
1995.26	0.224404
2006.78	0.224502
2018.37	0.224599
2030.02	0.224697
2041.74	0.224795
2053.53	0.224892
2065.38	0.22499
2077.3	0.225087
2089.3	0.225184
2101.36	0.225282
2113.49	0.225379
2125.69	0.225477
2137.96	0.225574
2150.3	0.225671
2162.72	0.225769
2175.2	0.225866
2187.76	0.225963
2200.39	0.22606
2213.09	0.226157
2225.87	0.226254
2238.72	0.226352
2251.65	0.226449
2264.64	0.226546
2277.72	0.226643
2290.87	0.226739
2304.09	0.226836
2317.39	0.226933
2330.77	0.22703
2344.23	0.227127
2357.76	0.227224
2371.37	0.22732
2385.06	0.227417
2398.83	0.227514
2412.68	0.22761
2426.61	0.227707
2440.62	0.227803
2454.71	0.2279
2468.88	0.227996
2483.13	0.228092
2497.47	0.228189
2511.89	0.228285
2526.39	0.228381
2540.97	0.228477
2555.64	0.228574
2570.4	0.22867
2585.23	0.228766
2600.16	0.228862
2615.17	0.228958
2630.27	0.229054
2645.45	0.22915
2660.73	0.229245
2676.09	0.229341
2691.53	0.229437
2707.07	0.229533
2722.7	0.229628
2738.42	0.229724
2754.23	0.229819
2770.13	0.229915
2786.12	0.23001
2802.21	0.230106
2818.38	0.230201
2834.65	0.230296
2851.02	0.230391
2867.48	0.230487
2884.03	0.230582
2900.68	0.230677
2917.43	0.230772
2934.27	0.230867
2951.21	0.230962
2968.25	0.231057
2985.38	0.231151
3002.62	0.231246
3019.95	0.231341
3037.39	0.231436
3054.92	0.23153
3072.56	0.231625
3090.3	0.231719
3108.14	0.231814
3126.08	0.231908
3144.13	0.232002
3162.28	0.232097
3180.53	0.232191
3198.9	0.232285
3217.36	0.232379
3235.94	0.232473
3254.62	0.232567
3273.41	0.232661
3292.3	0.232755
3311.31	0.232849
3330.43	0.232942
3349.65	0.233036
3368.99	0.23313
3388.44	0.233223
3408	0.233317
3427.68	0.23341
3447.47	0.233504
3467.37	0.233597
3487.39	0.23369
3507.52	0.233784
3527.77	0.233877
3548.13	0.23397
3568.62	0.234063
3589.22	0.234156
3609.94	0.234249
3630.78	0.234342
3651.74	0.234435
3672.82	0.234527
3694.03	0.23462
3715.35	0.234713
3736.8	0.234805
3758.37	0.234898
3780.07	0.23499
3801.89	0.235083
3823.84	0.235175
3845.92	0.235267
3868.12	0.235359
3890.45	0.235452
3912.91	0.235544
3935.5	0.235636
3958.22	0.235728
3981.07	0.23582
4004.05	0.235911
4027.17	0.236003
4050.42	0.236095
4073.8	0.236187
4097.32	0.236278
4120.98	0.23637
4144.77	0.236461
4168.69	0.236553
4192.76	0.236644
4216.97	0.236735
4241.31	0.236826
4265.8	0.236918
4290.42	0.237009
4315.19	0.2371
4340.1	0.237191
4365.16	0.237282
4390.36	0.237372
4415.7	0.237463
4441.2	0.237554
4466.84	0.237645
4492.62	0.237735
4518.56	0.237826
4544.65	0.237916
4570.88	0.238006
4597.27	0.238097
4623.81	0.238187
4650.5	0.238277
4677.35	0.238367
4704.35	0.238458
4731.51	0.238548
4758.83	0.238638
4786.3	0.238727
4813.93	0.238817
4841.72	0.238907
4869.68	0.238997
4897.79	0.239086
4926.06	0.239176
4954.5	0.239265
4983.1	0.239355
5011.87	0.239444
5040.81	0.239534
5069.91	0.239623
5099.18	0.239712
5128.61	0.239801
5158.22	0.23989
5188	0.239979
5217.95	0.240068
5248.07	0.240157
5278.37	0.240246
5308.84	0.240335
5339.49	0.240423
5370.32	0.240512
5401.32	0.240601
5432.5	0.240689
5463.87	0.240778
5495.41	0.240866
5527.13	0.240954
5559.04	0.241043
5591.14	0.241131
5623.41	0.241219
5655.88	0.241307
5688.53	0.241395
5721.37	0.241483
5754.4	0.241571
5787.62	0.241659
5821.03	0.241746
5854.64	0.241834
5888.44	0.241922
5922.43	0.242009
5956.62	0.242097
5991.01	0.242184
6025.6	0.242272
6060.38	0.242359
6095.37	0.242446
6130.56	0.242533
6165.95	0.242621
6201.55	0.242708
6237.35	0.242795
6273.36	0.242882
6309.57	0.242969
6346	0.243055
6382.63	0.243142
6419.48	0.243229
6456.54	0.243316
6493.82	0.243402
6531.31	0.243489
6569.01	0.243575
6606.93	0.243662
6645.08	0.243748
6683.44	0.243834
6722.02	0.243921
6760.83	0.244007
6799.86	0.244093
6839.12	0.244179
6878.6	0.244265
6918.31	0.244351
6958.25	0.244437
6998.42	0.244522
7038.82	0.244608
7079.46	0.244694
7120.33	0.24478
7161.43	0.244865
7202.78	0.244951
7244.36	0.245036
7286.18	0.245122
7328.25	0.245207
7370.55	0.245292
7413.1	0.245377
7455.9	0.245463
7498.94	0.245548
7542.23	0.245633
7585.78	0.245718
7629.57	0.245803
7673.61	0.245888
7717.92	0.245973
7762.47	0.246057
7807.28	0.246142
7852.36	0.246227
7897.69	0.246311
7943.28	0.246396
7989.14	0.24648
8035.26	0.246565
8081.65	0.246649
8128.31	0.246733
8175.23	0.246818
8222.43	0.246902
8269.9	0.246986
8317.64	0.24707
8365.66	0.247154
8413.95	0.247238
8462.53	0.247322
8511.38	0.247406
8560.52	0.24749
8609.94	0.247574
8659.64	0.247657
8709.64	0.247741
8759.92	0.247825
8810.49	0.247908
8861.35	0.247992
8912.51	0.248075
8963.96	0.248159
9015.71	0.248242
9067.76	0.248325
9120.11	0.248409
9172.76	0.248492
9225.71	0.248575
9278.97	0.248658
9332.54	0.248741
9386.42	0.248824
9440.61	0.248907
9495.11	0.24899
9549.93	0.249073
9605.06	0.249156
9660.51	0.249238
9716.28	0.249321
9772.37	0.249404
9828.79	0.249486
9885.53	0.249569
9942.6	0.249651
10000	0.249734
10057.7	0.249816
10115.8	0.249898
10174.2	0.249981
10232.9	0.250063
10292	0.250145
10351.4	0.250227
10411.2	0.250309
10471.3	0.250391
10531.7	0.250473
10592.5	0.250555
10653.7	0.250637
10715.2	0.250719
10777.1	0.250801
10839.3	0.250883
10901.8	0.250965
10964.8	0.251046
11028.1	0.251128
11091.7	0.251209
11155.8	0.251291
11220.2	0.251372
11285	0.251454
11350.1	0.251535
11415.6	0.251617
11481.5	0.251698
11547.8	0.251779
11614.5	0.251861
11681.5	0.251942
11749	0.252023
11816.8	0.252104
11885	0.252185
11953.6	0.252266
12022.6	0.252347
12092.1	0.252428
12161.9	0.252509
12232.1	0.25259
12302.7	0.25267
12373.7	0.252751
12445.1	0.252832
12517	0.252913
12589.3	0.252993
12661.9	0.253074
12735	0.253154
12808.6	0.253235
12882.5	0.253315
12956.9	0.253395
13031.7	0.253476
13106.9	0.253556
13182.6	0.253636
13258.7	0.253716
13335.2	0.253797
13412.2	0.253877
13489.6	0.253957
13567.5	0.254037
13645.8	0.254117
13724.6	0.254197
13803.8	0.254276
13883.5	0.254356
13963.7	0.254436
14044.3	0.254516
14125.4	0.254595
14206.9	0.254675
14288.9	0.254755
14371.4	0.254834
14454.4	0.254914
14537.8	0.254993
14621.8	0.255073
14706.2	0.255152
14791.1	0.255231
14876.5	0.25531
14962.4	0.25539
15048.7	0.255469
15135.6	0.255548
15223	0.255627
15310.9	0.255706
15399.3	0.255785
15488.2	0.255864
15577.6	0.255943
15667.5	0.256022
15758	0.2561
15848.9	0.256179
15940.4	0.256258
16032.5	0.256336
16125	0.256415
16218.1	0.256493
16311.7	0.256572
16405.9	0.25665
16500.6	0.256729
16595.9	0.256807
16691.7	0.256885
16788	0.256964
16885	0.257042
16982.4	0.25712
17080.5	0.257198
17179.1	0.257276
17278.3	0.257354
17378	0.257432
17478.3	0.25751
17579.2	0.257588
17680.7	0.257666
17782.8	0.257743
17885.5	0.257821
17988.7	0.257899
18092.6	0.257976
18197	0.258054
18302.1	0.258131
18407.7	0.258209
18514	0.258286
18620.9	0.258364
18728.4	0.258441
18836.5	0.258518
18945.2	0.258596
19054.6	0.258673
19164.6	0.25875
19275.2	0.258827
19386.5	0.258904
19498.4	0.258981
19611	0.259058
19724.2	0.259135
19838.1	0.259212
19952.6	0.259288
20067.8	0.259365
20183.7	0.259442
20300.2	0.259519
20417.4	0.259595
20535.3	0.259672
20653.8	0.259748
20773	0.259825
20893	0.259901
21013.6	0.259977
21134.9	0.260054
21256.9	0.26013
21379.6	0.260206
21503	0.260282
21627.2	0.260358
21752	0.260434
21877.6	0.26051
22003.9	0.260586
22130.9	0.260662
22258.7	0.260738
22387.2	0.260814
22516.5	0.26089
22646.4	0.260966
22777.2	0.261041
22908.7	0.261117
23040.9	0.261192
23173.9	0.261268
23307.7	0.261343
23442.3	0.261419
23577.6	0.261494
23713.7	0.26157
23850.6	0.261645
23988.3	0.26172
24126.8	0.261795
24266.1	0.261871
24406.2	0.261946
24547.1	0.262021
24688.8	0.262096
24831.3	0.262171
24974.7	0.262246
25118.9	0.26232
25263.9	0.262395
25409.7	0.26247
25556.4	0.262545
25704	0.262619
25852.3	0.262694
26001.6	0.262769
26151.7	0.262843
26302.7	0.262918
26454.5	0.262992
26607.3	0.263066
26760.9	0.263141
26915.3	0.263215
27070.7	0.263289
27227	0.263364
27384.2	0.263438
27542.3	0.263512
27701.3	0.263586
27861.2	0.26366
28022.1	0.263734
28183.8	0.263808
28346.5	0.263882
28510.2	0.263956
28674.8	0.264029
28840.3	0.264103
29006.8	0.264177
29174.3	0.26425
29342.7	0.264324
29512.1	0.264398
29682.5	0.264471
29853.8	0.264545
30026.2	0.264618
30199.5	0.264691
30373.9	0.264765
30549.2	0.264838
30725.6	0.264911
30903	0.264984
31081.4	0.265058
31260.8	0.265131
31441.3	0.265204
31622.8	0.265277
31805.3	0.26535
31989	0.265423
32173.6	0.265496
32359.4	0.265568
32546.2	0.265641
32734.1	0.265714
32923	0.265787
33113.1	0.265859
33304.3	0.265932
33496.5	0.266004
33689.9	0.266077
33884.4	0.266149
34080	0.266222
34276.8	0.266294
34474.7	0.266367
34673.7	0.266439
34873.9	0.266511
35075.2	0.266583
35277.7	0.266656
35481.3	0.266728
35686.2	0.2668
35892.2	0.266872
36099.4	0.266944
36307.8	0.267016
36517.4	0.267088
36728.2	0.26716
36940.3	0.267232
37153.5	0.267303
37368	0.267375
37583.7	0.267447
37800.7	0.267518
38018.9	0.26759
38238.4	0.267662
38459.2	0.267733
38681.2	0.267805
38904.5	0.267876
39129.1	0.267948
39355	0.268019
39582.2	0.26809
39810.7	0.268162
40040.5	0.268233
40271.7	0.268304
40504.2	0.268375
40738	0.268446
40973.2	0.268517
41209.8	0.268589
41447.7	0.26866
41686.9	0.26873
41927.6	0.268801
42169.7	0.268872
42413.1	0.268943
42658	0.269014
42904.2	0.269085
43151.9	0.269155
43401	0.269226
43651.6	0.269297
43903.6	0.269367
44157	0.269438
44412	0.269509
44668.4	0.269579
44926.2	0.26965
45185.6	0.26972
45446.5	0.26979
45708.8	0.269861
45972.7	0.269931
46238.1	0.270001
46505	0.270071
46773.5	0.270142
47043.5	0.270212
47315.1	0.270282
47588.3	0.270352
47863	0.270422
48139.3	0.270492
48417.2	0.270562
48696.8	0.270632
48977.9	0.270702
49260.6	0.270772
49545	0.270842
49831	0.270911
50118.7	0.270981
50408.1	0.271051
50699.1	0.27112
50991.8	0.27119
51286.1	0.27126
51582.2	0.271329
51880	0.271399
52179.5	0.271468
52480.7	0.271538
52783.7	0.271607
53088.4	0.271677
53394.9	0.271746
53703.2	0.271815
54013.2	0.271885
54325	0.271954
54638.7	0.272023
54954.1	0.272092
55271.3	0.272161
55590.4	0.272231
55911.4	0.2723
56234.1	0.272369
56558.8	0.272438
56885.3	0.272507
57213.7	0.272576
57544	0.272645
57876.2	0.272713
58210.3	0.272782
58546.4	0.272851
58884.4	0.27292
59224.3	0.272989
59566.2	0.273057
59910.1	0.273126
60256	0.273195
60603.8	0.273263
60953.7	0.273332
61305.6	0.273401
61659.5	0.273469
62015.5	0.273538
62373.5	0.273606
62733.6	0.273674
63095.7	0.273743
63460	0.273811
63826.3	0.27388
64194.8	0.273948
64565.4	0.274016
64938.2	0.274084
65313.1	0.274153
65690.1	0.274221
66069.3	0.274289
66450.8	0.274357
66834.4	0.274425
67220.2	0.274493
67608.3	0.274561
67998.6	0.274629
68391.2	0.274697
68786	0.274765
69183.1	0.274833
69582.5	0.274901
69984.2	0.274969
70388.2	0.275037
70794.6	0.275105
71203.3	0.275173
71614.3	0.27524
72027.8	0.275308
72443.6	0.275376
72861.8	0.275443
73282.5	0.275511
73705.5	0.275579
74131	0.275646
74559	0.275714
74989.4	0.275781
75422.3	0.275849
75857.8	0.275916
76295.7	0.275984
76736.1	0.276051
77179.2	0.276119
77624.7	0.276186
78072.8	0.276254
78523.6	0.276321
78976.9	0.276388
79432.8	0.276456
79891.4	0.276523
80352.6	0.27659
80816.5	0.276657
81283.1	0.276724
81752.3	0.276792
82224.3	0.276859
82699	0.276926
83176.4	0.276993
83656.6	0.27706
84139.5	0.277127
84625.3	0.277194
85113.8	0.277261
85605.2	0.277328
86099.4	0.277395
86596.4	0.277462
87096.4	0.277529
87599.2	0.277596
88104.9	0.277663
88613.5	0.277729
89125.1	0.277796
89639.6	0.277863
90157.1	0.27793
90677.6	0.277997
91201.1	0.278063
91727.6	0.27813
92257.1	0.278197
92789.7	0.278263
93325.4	0.27833
93864.2	0.278397
94406.1	0.278463
94951.1	0.27853
95499.3	0.278596
96050.6	0.278663
96605.1	0.278729
97162.8	0.278796
97723.7	0.278862
98287.9	0.278929
98855.3	0.278995
99426	0.279062
100000	0.279128
100577	0.279194
101158	0.279261
101742	0.279327
102329	0.279393
102920	0.27946
103514	0.279526
104112	0.279592
104713	0.279658
105317	0.279725
105925	0.279791
106537	0.279857
107152	0.279923
107771	0.279989
108393	0.280055
109018	0.280122
109648	0.280188
110281	0.280254
110917	0.28032
111558	0.280386
112202	0.280452
112850	0.280518
113501	0.280584
114156	0.28065
114815	0.280716
115478	0.280782
116145	0.280848
116815	0.280914
117490	0.280979
118168	0.281045
118850	0.281111
119536	0.281177
120226	0.281243
120921	0.281309
121619	0.281374
122321	0.28144
123027	0.281506
123737	0.281572
124451	0.281637
125170	0.281703
125893	0.281769
126619	0.281835
127350	0.2819
128086	0.281966
128825	0.282032
129569	0.282097
130317	0.282163
131069	0.282228
131826	0.282294
132587	0.28236
133352	0.282425
134122	0.282491
134896	0.282556
135675	0.282622
136458	0.282687
137246	0.282753
138038	0.282818
138835	0.282884
139637	0.282949
140443	0.283015
141254	0.28308
142069	0.283146
142889	0.283211
143714	0.283276
144544	0.283342
145378	0.283407
146218	0.283473
147062	0.283538
147911	0.283603
148765	0.283669
149624	0.283734
150487	0.283799
151356	0.283865
152230	0.28393
153109	0.283995
153993	0.28406
154882	0.284126
155776	0.284191
156675	0.284256
157580	0.284321
158489	0.284387
159404	0.284452
160325	0.284517
161250	0.284582
162181	0.284647
163117	0.284713
164059	0.284778
165006	0.284843
165959	0.284908
166917	0.284973
167880	0.285038
168850	0.285103
169824	0.285169
170805	0.285234
171791	0.285299
172783	0.285364
173780	0.285429
174783	0.285494
175792	0.285559
176807	0.285624
177828	0.285689
178855	0.285754
179887	0.285819
180926	0.285884
181970	0.285949
183021	0.286014
184077	0.286079
185140	0.286144
186209	0.286209
187284	0.286274
188365	0.286339
189452	0.286404
190546	0.286469
191646	0.286534
192752	0.286599
193865	0.286664
194984	0.286729
196110	0.286794
197242	0.286859
198381	0.286924
199526	0.286989
200678	0.287054
201837	0.287118
203002	0.287183
204174	0.287248
205353	0.287313
206538	0.287378
207730	0.287443
208930	0.287508
210136	0.287573
211349	0.287638
212569	0.287702
213796	0.287767
215030	0.287832
216272	0.287897
217520	0.287962
218776	0.288027
220039	0.288091
221309	0.288156
222587	0.288221
223872	0.288286
225165	0.288351
226464	0.288416
227772	0.28848
229087	0.288545
230409	0.28861
231739	0.288675
233077	0.28874
234423	0.288804
235776	0.288869
237137	0.288934
238506	0.288999
239883	0.289064
241268	0.289128
242661	0.289193
244062	0.289258
245471	0.289323
246888	0.289387
248313	0.289452
249747	0.289517
251189	0.289582
252639	0.289647
254097	0.289711
255564	0.289776
257040	0.289841
258523	0.289906
260016	0.28997
261517	0.290035
263027	0.2901
264545	0.290165
266073	0.290229
267609	0.290294
269153	0.290359
270707	0.290424
272270	0.290488
273842	0.290553
275423	0.290618
277013	0.290683
278612	0.290747
280221	0.290812
281838	0.290877
283465	0.290942
285102	0.291006
286748	0.291071
288403	0.291136
290068	0.291201
291743	0.291265
293427	0.29133
295121	0.291395
296825	0.29146
298538	0.291524
300262	0.291589
301995	0.291654
303739	0.291719
305492	0.291783
307256	0.291848
309030	0.291913
310814	0.291978
312608	0.292042
314413	0.292107
316228	0.292172
318053	0.292237
319890	0.292301
321736	0.292366
323594	0.292431
325462	0.292496
327341	0.292561
329230	0.292625
331131	0.29269
333043	0.292755
334965	0.29282
336899	0.292884
338844	0.292949
340800	0.293014
342768	0.293079
344747	0.293144
346737	0.293208
348739	0.293273
350752	0.293338
352777	0.293403
354813	0.293467
356862	0.293532
358922	0.293597
360994	0.293662
363078	0.293727
365174	0.293792
367282	0.293856
369403	0.293921
371535	0.293986
373680	0.294051
375837	0.294116
378007	0.29418
380189	0.294245
382384	0.29431
384592	0.294375
386812	0.29444
389045	0.294505
391291	0.29457
393550	0.294634
395822	0.294699
398107	0.294764
400405	0.294829
402717	0.294894
405042	0.294959
407380	0.295024
409732	0.295089
412098	0.295153
414477	0.295218
416869	0.295283
419276	0.295348
421697	0.295413
424131	0.295478
426580	0.295543
429042	0.295608
431519	0.295673
434010	0.295738
436516	0.295803
439036	0.295868
441570	0.295932
444120	0.295997
446684	0.296062
449262	0.296127
451856	0.296192
454465	0.296257
457088	0.296322
459727	0.296387
462381	0.296452
465050	0.296517
467735	0.296582
470435	0.296647
473151	0.296712
475883	0.296777
478630	0.296842
481393	0.296907
484172	0.296972
486968	0.297037
489779	0.297103
492606	0.297168
495450	0.297233
498310	0.297298
501187	0.297363
504081	0.297428
506991	0.297493
509918	0.297558
512861	0.297623
515822	0.297688
518800	0.297753
521795	0.297818
524807	0.297884
527837	0.297949
530884	0.298014
533949	0.298079
537032	0.298144
540132	0.298209
543250	0.298275
546387	0.29834
549541	0.298405
552713	0.29847
555904	0.298535
559114	0.2986
562341	0.298666
565588	0.298731
568853	0.298796
572137	0.298861
575440	0.298927
578762	0.298992
582103	0.299057
585464	0.299122
588844	0.299188
592243	0.299253
595662	0.299318
599101	0.299384
602560	0.299449
606038	0.299514
609537	0.299579
613056	0.299645
616595	0.29971
620155	0.299775
623735	0.299841
627336	0.299906
630957	0.299972
634600	0.300037
638263	0.300102
641948	0.300168
645654	0.300233
649382	0.300299
653131	0.300364
656901	0.300429
660693	0.300495
664508	0.30056
668344	0.300626
672202	0.300691
676083	0.300757
679986	0.300822
683912	0.300888
687860	0.300953
691831	0.301019
695825	0.301084
699842	0.30115
703882	0.301215
707946	0.301281
712033	0.301346
716143	0.301412
720278	0.301477
724436	0.301543
728618	0.301609
732825	0.301674
737055	0.30174
741310	0.301805
745590	0.301871
749894	0.301937
754223	0.302002
758578	0.302068
762957	0.302134
767361	0.302199
771792	0.302265
776247	0.302331
780728	0.302396
785236	0.302462
789769	0.302528
794328	0.302594
798914	0.302659
803526	0.302725
808165	0.302791
812831	0.302857
817523	0.302922
822243	0.302988
826990	0.303054
831764	0.30312
836566	0.303186
841395	0.303252
846253	0.303317
851138	0.303383
856052	0.303449
860994	0.303515
865964	0.303581
870964	0.303647
875992	0.303713
881049	0.303779
886135	0.303845
891251	0.30391
896396	0.303976
901571	0.304042
906776	0.304108
912011	0.304174
917276	0.30424
922571	0.304306
927897	0.304372
933254	0.304438
938642	0.304504
944061	0.304571
949511	0.304637
954993	0.304703
960506	0.304769
966051	0.304835
971628	0.304901
977237	0.304967
982879	0.305033
988553	0.305099
994260	0.305165
1e+06	0.305232
1.00577e+06	0.305298
1.01158e+06	0.305364
1.01742e+06	0.30543
1.02329e+06	0.305496
1.0292e+06	0.305563
1.03514e+06	0.305629
1.04112e+06	0.305695
1.04713e+06	0.305761
1.05317e+06	0.305828
1.05925e+06	0.305894
1.06537e+06	0.30596
1.07152e+06	0.306027
1.07771e+06	0.306093
1.08393e+06	0.306159
1.09018e+06	0.306225
1.09648e+06	0.306292
1.10281e+06	0.306358
1.10917e+06	0.306425
1.11558e+06	0.306491
1.12202e+06	0.306557
1.1285e+06	0.306624
1.13501e+06	0.30669
1.14156e+06	0.306757
1.14815e+06	0.306823
1.15478e+06	0.30689
1.16145e+06	0.306956
1.16815e+06	0.307022
1.1749e+06	0.307089
1.18168e+06	0.307155
1.1885e+06	0.307222
1.19536e+06	0.307289
1.20226e+06	0.307355
1.20921e+06	0.307422
1.21619e+06	0.307488
1.22321e+06	0.307555
1.23027e+06	0.307621
1.23737e+06	0.307688
1.24451e+06	0.307755
1.2517e+06	0.307821
1.25893e+06	0.307888
1.26619e+06	0.307955
1.2735e+06	0.308021
1.28086e+06	0.308088
1.28825e+06	0.308155
1.29569e+06	0.308221
1.30317e+06	0.308288
1.31069e+06	0.308355
1.31826e+06	0.308421
1.32587e+06	0.308488
1.33352e+06	0.308555
1.34122e+06	0.308622
1.34896e+06	0.308689
1.35675e+06	0.308755
1.36458e+06	0.308822
1.37246e+06	0.308889
1.38038e+06	0.308956
1.38835e+06	0.309023
1.39637e+06	0.30909
1.40443e+06	0.309156
1.41254e+06	0.309223
1.42069e+06	0.30929
1.42889e+06	0.309357
1.43714e+06	0.309424
1.44544e+06	0.309491
1.45378e+06	0.309558
1.46218e+06	0.309625
1.47062e+06	0.309692
1.47911e+06	0.309759
1.48765e+06	0.309826
1.49624e+06	0.309893
1.50487e+06	0.30996
1.51356e+06	0.310027
1.5223e+06	0.310094
1.53109e+06	0.310161
1.53993e+06	0.310228
1.54882e+06	0.310296
1.55776e+06	0.310363
1.56675e+06	0.31043
1.5758e+06	0.310497
1.58489e+06	0.310564
1.59404e+06	0.310631
1.60325e+06	0.310699
1.6125e+06	0.310766
1.62181e+06	0.310833
1.63117e+06	0.3109
1.64059e+06	0.310967
1.65006e+06	0.311035
1.65959e+06	0.311102
1.66917e+06	0.311169
1.6788e+06	0.311237
1.6885e+06	0.311304
1.69824e+06	0.311371
1.70805e+06	0.311439
1.71791e+06	0.311506
1.72783e+06	0.311573
1.7378e+06	0.311641
1.74783e+06	0.311708
1.75792e+06	0.311776
1.76807e+06	0.311843
1.77828e+06	0.31191
1.78855e+06	0.311978
1.79887e+06	0.312045
1.80926e+06	0.312113
1.8197e+06	0.31218
1.83021e+06	0.312248
1.84077e+06	0.312315
1.8514e+06	0.312383
1.86209e+06	0.31245
1.87284e+06	0.312518
1.88365e+06	0.312586
1.89452e+06	0.312653
1.90546e+06	0.312721
1.91646e+06	0.312788
1.92752e+06	0.312856
1.93865e+06	0.312924
1.94984e+06	0.312991
1.9611e+06	0.313059
1.97242e+06	0.313127
1.98381e+06	0.313195
1.99526e+06	0.313262
2.00678e+06	0.31333
2.01837e+06	0.313398
2.03002e+06	0.313466
2.04174e+06	0.313533
2.05353e+06	0.313601
2.06538e+06	0.313669
2.0773e+06	0.313737
2.0893e+06	0.313805
2.10136e+06	0.313872
2.11349e+06	0.31394
2.12569e+06	0.314008
2.13796e+06	0.314076
2.1503e+06	0.314144
2.16272e+06	0.314212
2.1752e+06	0.31428
2.18776e+06	0.314348
2.20039e+06	0.314416
2.21309e+06	0.314484
2.22587e+06	0.314552
2.23872e+06	0.31462
2.25165e+06	0.314688
2.26464e+06	0.314756
2.27772e+06	0.314824
2.29087e+06	0.314892
2.30409e+06	0.31496
2.31739e+06	0.315028
2.33077e+06	0.315096
2.34423e+06	0.315165
2.35776e+06	0.315233
2.37137e+06	0.315301
2.38506e+06	0.315369
2.39883e+06	0.315437
2.41268e+06	0.315506
2.42661e+06	0.315574
2.44062e+06	0.315642
2.45471e+06	0.31571
2.46888e+06	0.315779
2.48313e+06	0.315847
2.49747e+06	0.315915
2.51189e+06	0.315983
2.52639e+06	0.316052
2.54097e+06	0.31612
2.55564e+06	0.316189
2.5704e+06	0.316257
2.58523e+06	0.316325
2.60016e+06	0.316394
2.61517e+06	0.316462
2.63027e+06	0.316531
2.64545e+06	0.316599
2.66073e+06	0.316668
2.67609e+06	0.316736
2.69153e+06	0.316805
2.70707e+06	0.316873
2.7227e+06	0.316942
2.73842e+06	0.31701
2.75423e+06	0.317079
2.77013e+06	0.317147
2.78612e+06	0.317216
2.80221e+06	0.317285
2.81838e+06	0.317353
2.83465e+06	0.317422
2.85102e+06	0.31749
2.86748e+06	0.317559
2.88403e+06	0.317628
2.90068e+06	0.317697
2.91743e+06	0.317765
2.93427e+06	0.317834
2.95121e+06	0.317903
2.96825e+06	0.317972
2.98538e+06	0.31804
3.00262e+06	0.318109
3.01995e+06	0.318178
3.03739e+06	0.318247
3.05492e+06	0.318316
3.07256e+06	0.318385
3.0903e+06	0.318453
3.10814e+06	0.318522
3.12608e+06	0.318591
3.14413e+06	0.31866
3.16228e+06	0.318729
3.18053e+06	0.318798
3.1989e+06	0.318867
3.21736e+06	0.318936
3.23594e+06	0.319005
3.25462e+06	0.319074
3.27341e+06	0.319143
3.2923e+06	0.319212
3.31131e+06	0.319281
3.33043e+06	0.31935
3.34965e+06	0.319419
3.36899e+06	0.319489
3.38844e+06	0.319558
3.408e+06	0.319627
3.42768e+06	0.319696
3.44747e+06	0.319765
3.46737e+06	0.319834
3.48739e+06	0.319904
3.50752e+06	0.319973
3.52777e+06	0.320042
3.54813e+06	0.320111
3.56862e+06	0.320181
3.58922e+06	0.32025
3.60994e+06	0.320319
3.63078e+06	0.320389
3.65174e+06	0.320458
3.67282e+06	0.320527
3.69403e+06	0.320597
3.71535e+06	0.320666
3.7368e+06	0.320736
3.75837e+06	0.320805
3.78007e+06	0.320874
3.80189e+06	0.320944
3.82384e+06	0.321013
3.84592e+06	0.321083
3.86812e+06	0.321152
3.89045e+06	0.321222
3.91291e+06	0.321291
3.9355e+06	0.321361
3.95822e+06	0.321431
3.98107e+06	0.3215
4.00405e+06	0.32157
4.02717e+06	0.321639
4.05042e+06	0.321709
4.0738e+06	0.321779
4.09732e+06	0.321848
4.12098e+06	0.321918
4.14477e+06	0.321988
4.16869e+06	0.322058
4.19276e+06	0.322127
4.21697e+06	0.322197
4.24131e+06	0.322267
4.2658e+06	0.322337
4.29042e+06	0.322406
4.31519e+06	0.322476
4.3401e+06	0.322546
4.36516e+06	0.322616
4.39036e+06	0.322686
4.4157e+06	0.322756
4.4412e+06	0.322826
4.46684e+06	0.322896
4.49262e+06	0.322966
4.51856e+06	0.323036
4.54465e+06	0.323106
4.57088e+06	0.323176
4.59727e+06	0.323246
4.62381e+06	0.323316
4.6505e+06	0.323386
4.67735e+06	0.323456
4.70435e+06	0.323526
4.73151e+06	0.323596
4.75883e+06	0.323666
4.7863e+06	0.323736
4.81393e+06	0.323806
4.84172e+06	0.323876
4.86968e+06	0.323947
4.89779e+06	0.324017
4.92606e+06	0.324087
4.9545e+06	0.324157
4.9831e+06	0.324227
5.01187e+06	0.324298
5.04081e+06	0.324368
5.06991e+06	0.324438
5.09918e+06	0.324509
5.12861e+06	0.324579
5.15822e+06	0.324649
5.188e+06	0.32472
5.21795e+06	0.32479
5.24807e+06	0.324861
5.27837e+06	0.324931
5.30884e+06	0.325001
5.33949e+06	0.325072
5.37032e+06	0.325142
5.40132e+06	0.325213
5.4325e+06	0.325283
5.46387e+06	0.325354
5.49541e+06	0.325424
5.52713e+06	0.325495
5.55904e+06	0.325566
5.59114e+06	0.325636
5.62341e+06	0.325707
5.65588e+06	0.325777
5.68853e+06	0.325848
5.72137e+06	0.325919
5.7544e+06	0.325989
5.78762e+06	0.32606
5.82103e+06	0.326131
5.85464e+06	0.326201
5.88844e+06	0.326272
5.92243e+06	0.326343
5.95662e+06	0.326414
5.99101e+06	0.326485
6.0256e+06	0.326555
6.06038e+06	0.326626
6.09537e+06	0.326697
6.13056e+06	0.326768
6.16595e+06	0.326839
6.20155e+06	0.32691
6.23735e+06	0.326981
6.27336e+06	0.327052
6.30957e+06	0.327123
6.346e+06	0.327194
6.38263e+06	0.327265
6.41948e+06	0.327336
6.45654e+06	0.327407
6.49382e+06	0.327478
6.53131e+06	0.327549
6.56901e+06	0.32762
6.60693e+06	0.327691
6.64508e+06	0.327762
6.68344e+06	0.327833
6.72202e+06	0.327904
6.76083e+06	0.327976
6.79986e+06	0.328047
6.83912e+06	0.328118
6.8786e+06	0.328189
6.91831e+06	0.32826
6.95825e+06	0.328332
6.99842e+06	0.328403
7.03882e+06	0.328474
7.07946e+06	0.328546
7.12033e+06	0.328617
7.16143e+06	0.328688
7.20278e+06	0.32876
7.24436e+06	0.328831
7.28618e+06	0.328902
7.32825e+06	0.328974
7.37055e+06	0.329045
7.4131e+06	0.329117
7.4559e+06	0.329188
7.49894e+06	0.32926
7.54223e+06	0.329331
7.58578e+06	0.329403
7.62957e+06	0.329474
7.67361e+06	0.329546
7.71792e+06	0.329617
7.76247e+06	0.329689
7.80728e+06	0.329761
7.85236e+06	0.329832
7.89769e+06	0.329904
7.94328e+06	0.329976
7.98914e+06	0.330047
8.03526e+06	0.330119
8.08165e+06	0.330191
8.12831e+06	0.330262
8.17523e+06	0.330334
8.22243e+06	0.330406
8.2699e+06	0.330478
8.31764e+06	0.33055
8.36566e+06	0.330621
8.41395e+06	0.330693
8.46253e+06	0.330765
8.51138e+06	0.330837
8.56052e+06	0.330909
8.60994e+06	0.330981
8.65964e+06	0.331053
8.70964e+06	0.331125
8.75992e+06	0.331197
8.81049e+06	0.331269
8.86135e+06	0.331341
8.91251e+06	0.331413
8.96396e+06	0.331485
9.01571e+06	0.331557
9.06776e+06	0.331629
9.12011e+06	0.331701
9.17276e+06	0.331773
9.22571e+06	0.331845
9.27897e+06	0.331918
9.33254e+06	0.33199
9.38642e+06	0.332062
9.44061e+06	0.332134
9.49511e+06	0.332206
9.54993e+06	0.332279
9.60506e+06	0.332351
9.66051e+06	0.332423
9.71628e+06	0.332496
9.77237e+06	0.332568
9.82879e+06	0.33264
9.88553e+06	0.332713
9.9426e+06	0.332785
1e+07	0.332857
