Stopping power dEdx from Ionisation for mu- Z = 0 in Water, process name: muIoni
E [MeV]	dEdx [MeV/mm]
0.001	17.2559
0.00100577	17.4381
0.00101158	17.6187
0.00101742	17.7977
0.00102329	17.9753
0.0010292	18.1514
0.00103514	18.3261
0.00104112	18.4993
0.00104713	18.6712
0.00105317	18.8417
0.00105925	19.0108
0.00106537	19.1786
0.00107152	19.3451
0.00107771	19.5106
0.00108393	19.675
0.00109018	19.8382
0.00109648	20.0001
0.00110281	20.1608
0.00110917	20.3204
0.00111558	20.4788
0.00112202	20.636
0.0011285	20.7921
0.00113501	20.9471
0.00114156	21.101
0.00114815	21.2436
0.00115478	21.3813
0.00116145	21.5182
0.00116815	21.6544
0.0011749	21.7899
0.00118168	21.9247
0.0011885	22.0589
0.00119536	22.1996
0.00120226	22.3438
0.00120921	22.4874
0.00121619	22.6309
0.00122321	22.7737
0.00123027	22.9159
0.00123737	23.0574
0.00124451	23.1982
0.0012517	23.3384
0.00125893	23.478
0.00126619	23.6169
0.0012735	23.7552
0.00128086	23.8929
0.00128825	24.03
0.00129569	24.1666
0.00130317	24.3026
0.00131069	24.4683
0.00131826	24.6612
0.00132587	24.8526
0.00133352	25.0425
0.00134122	25.2309
0.00134896	25.4177
0.00135675	25.603
0.00136458	25.787
0.00137246	25.9696
0.00138038	26.1508
0.00138835	26.3308
0.00139637	26.5155
0.00140443	26.6999
0.00141254	26.883
0.00142069	27.0649
0.00142889	27.2454
0.00143714	27.4247
0.00144544	27.6028
0.00145378	27.7797
0.00146218	27.9554
0.00147062	28.1263
0.00147911	28.235
0.00148765	28.3434
0.00149624	28.4515
0.00150487	28.5593
0.00151356	28.6668
0.0015223	28.774
0.00153109	28.8809
0.00153993	28.9876
0.00154882	29.0941
0.00155776	29.2003
0.00156675	29.3063
0.0015758	29.412
0.00158489	29.5175
0.00159404	29.6255
0.00160325	29.7346
0.0016125	29.8434
0.00162181	29.9521
0.00163117	30.0606
0.00164059	30.2049
0.00165006	30.3604
0.00165959	30.5149
0.00166917	30.6684
0.0016788	30.8213
0.0016885	30.9761
0.00169824	31.1299
0.00170805	31.2829
0.00171791	31.435
0.00172783	31.5862
0.0017378	31.7367
0.00174783	31.8862
0.00175792	32.035
0.00176807	32.183
0.00177828	32.3302
0.00178855	32.477
0.00179887	32.6246
0.00180926	32.7714
0.0018197	32.9175
0.00183021	33.0628
0.00184077	33.2075
0.0018514	33.3514
0.00186209	33.4947
0.00187284	33.6372
0.00188365	33.7791
0.00189452	33.9204
0.00190546	34.061
0.00191646	34.201
0.00192752	34.3403
0.00193865	34.479
0.00194984	34.6172
0.0019611	34.7559
0.00197242	34.9082
0.00198381	35.0599
0.00199526	35.1842
0.00200678	35.3049
0.00201837	35.4254
0.00203002	35.5455
0.00204174	35.6654
0.00205353	35.785
0.00206538	35.9044
0.0020773	36.0235
0.0020893	36.1425
0.00210136	36.2612
0.00211349	36.3797
0.00212569	36.4981
0.00213796	36.6162
0.0021503	36.7341
0.00216272	36.8518
0.0021752	36.9694
0.00218776	37.0867
0.00220039	37.2039
0.00221309	37.3209
0.00222587	37.4378
0.00223872	37.5545
0.00225165	37.671
0.00226464	37.7874
0.00227772	37.9036
0.00229087	38.0225
0.00230409	38.148
0.00231739	38.2732
0.00233077	38.3983
0.00234423	38.5232
0.00235776	38.6497
0.00237137	38.7773
0.00238506	38.9046
0.00239883	39.0318
0.00241268	39.1587
0.00242661	39.2855
0.00244062	39.4121
0.00245471	39.5385
0.00246888	39.6647
0.00248313	39.7902
0.00249747	39.9111
0.00251189	40.0319
0.00252639	40.1526
0.00254097	40.2731
0.00255564	40.3935
0.0025704	40.5138
0.00258523	40.6339
0.00260016	40.754
0.00261517	40.8744
0.00263027	40.9996
0.00264545	41.1246
0.00266073	41.2494
0.00267609	41.3741
0.00269153	41.4989
0.00270707	41.6238
0.0027227	41.7486
0.00273842	41.8732
0.00275423	41.9977
0.00277013	42.1221
0.00278612	42.2463
0.00280221	42.3704
0.00281838	42.4944
0.00283465	42.6182
0.00285102	42.742
0.00286748	42.8656
0.00288403	42.9891
0.00290068	43.1124
0.00291743	43.2357
0.00293427	43.3588
0.00295121	43.4835
0.00296825	43.6089
0.00298538	43.7419
0.00300262	43.8837
0.00301995	44.0251
0.00303739	44.1686
0.00305492	44.3117
0.00307256	44.4545
0.0030903	44.5969
0.00310814	44.739
0.00312608	44.8807
0.00314413	45.0221
0.00316228	45.1631
0.00318053	45.3038
0.0031989	45.4441
0.00321736	45.5841
0.00323594	45.7237
0.00325462	45.8631
0.00327341	45.9917
0.0032923	46.0997
0.00331131	46.2077
0.00333043	46.3158
0.00334965	46.4239
0.00336899	46.5319
0.00338844	46.64
0.003408	46.7481
0.00342768	46.8563
0.00344747	46.9645
0.00346737	47.0727
0.00348739	47.1747
0.00350752	47.2737
0.00352777	47.3729
0.00354813	47.4721
0.00356862	47.5714
0.00358922	47.6708
0.00360994	47.7703
0.00363078	47.8698
0.00365174	47.9695
0.00367282	48.0692
0.00369403	48.169
0.00371535	48.2689
0.0037368	48.3689
0.00375837	48.469
0.00378007	48.5691
0.00380189	48.6693
0.00382384	48.7695
0.00384592	48.8699
0.00386812	48.9703
0.00389045	49.0708
0.00391291	49.1713
0.0039355	49.2719
0.00395822	49.3726
0.00398107	49.4597
0.00400405	49.5322
0.00402717	49.6053
0.00405042	49.6814
0.0040738	49.7581
0.00409732	49.8315
0.00412098	49.9025
0.00414477	49.9741
0.00416869	50.0463
0.00419276	50.1189
0.00421697	50.1921
0.00424131	50.2658
0.0042658	50.3399
0.00429042	50.4146
0.00431519	50.4897
0.0043401	50.5653
0.00436516	50.6414
0.00439036	50.7179
0.0044157	50.7948
0.0044412	50.8722
0.00446684	50.9499
0.00449262	51.0182
0.00451856	51.0869
0.00454465	51.156
0.00457088	51.2256
0.00459727	51.2957
0.00462381	51.3662
0.0046505	51.4372
0.00467735	51.5086
0.00470435	51.5805
0.00473151	51.6533
0.00475883	51.7265
0.0047863	51.8001
0.00481393	51.8741
0.00484172	51.9485
0.00486968	52.0232
0.00489779	52.0984
0.00492606	52.1875
0.0049545	52.2783
0.0049831	52.3677
0.00501187	52.4567
0.00504081	52.5457
0.00506991	52.6347
0.00509918	52.7239
0.00512861	52.813
0.00515822	52.9023
0.005188	52.9916
0.00521795	53.0809
0.00524807	53.1703
0.00527837	53.2597
0.00530884	53.3491
0.00533949	53.4386
0.00537032	53.5281
0.00540132	53.6197
0.0054325	53.7113
0.00546387	53.8029
0.00549541	53.8945
0.00552713	53.9861
0.00555904	54.0777
0.00559114	54.1692
0.00562341	54.2608
0.00565588	54.3524
0.00568853	54.4439
0.00572137	54.534
0.0057544	54.613
0.00578762	54.6921
0.00582103	54.7712
0.00585464	54.8503
0.00588844	54.9295
0.00592243	55.0087
0.00595662	55.0872
0.00599101	55.1437
0.0060256	55.2005
0.00606038	55.2561
0.00609537	55.3109
0.00613056	55.366
0.00616595	55.4213
0.00620155	55.477
0.00623735	55.5328
0.00627336	55.589
0.00630957	55.6454
0.006346	55.702
0.00638263	55.7589
0.00641948	55.8161
0.00645654	55.8734
0.00649382	55.931
0.00653131	55.9889
0.00656901	56.0257
0.00660693	56.0612
0.00664508	56.0972
0.00668344	56.1338
0.00672202	56.1715
0.00676083	56.2112
0.00679986	56.2514
0.00683912	56.2921
0.0068786	56.3334
0.00691831	56.3752
0.00695825	56.42
0.00699842	56.4725
0.00703882	56.5254
0.00707946	56.5786
0.00712033	56.632
0.00716143	56.6857
0.00720278	56.7396
0.00724436	56.7937
0.00728618	56.8481
0.00732825	56.9028
0.00737055	56.9515
0.0074131	56.9932
0.0074559	57.0351
0.00749894	57.0774
0.00754223	57.1199
0.00758578	57.1627
0.00762957	57.2058
0.00767361	57.2491
0.00771792	57.2927
0.00776247	57.3365
0.00780728	57.3806
0.00785236	57.4249
0.00789769	57.4695
0.00794328	57.5133
0.00798914	57.5401
0.00803526	57.5673
0.00808165	57.5958
0.00812831	57.6254
0.00817523	57.6544
0.00822243	57.6781
0.0082699	57.7022
0.00831764	57.7267
0.00836566	57.7514
0.00841395	57.7765
0.00846253	57.8019
0.00851138	57.8276
0.00856052	57.8536
0.00860994	57.8799
0.00865964	57.9065
0.00870964	57.9334
0.00875992	57.9605
0.00881049	57.9879
0.00886135	58.0156
0.00891251	58.0436
0.00896396	58.0728
0.00901571	58.1029
0.00906776	58.1333
0.00912011	58.1637
0.00917276	58.1944
0.00922571	58.2251
0.00927897	58.256
0.00933254	58.2871
0.00938642	58.3183
0.00944061	58.3504
0.00949511	58.3828
0.00954993	58.4153
0.00960506	58.448
0.00966051	58.4808
0.00971628	58.5137
0.00977237	58.5467
0.00982879	58.5672
0.00988553	58.574
0.0099426	58.5776
0.01	58.5731
0.0100577	58.5692
0.0101158	58.5656
0.0101742	58.5625
0.0102329	58.5598
0.010292	58.5575
0.0103514	58.5556
0.0104112	58.5541
0.0104713	58.553
0.0105317	58.5522
0.0105925	58.5518
0.0106537	58.5518
0.0107152	58.5521
0.0107771	58.5531
0.0108393	58.5546
0.0109018	58.5565
0.0109648	58.5588
0.0110281	58.5613
0.0110917	58.5642
0.0111558	58.5674
0.0112202	58.5709
0.011285	58.5748
0.0113501	58.5789
0.0114156	58.5833
0.0114815	58.5917
0.0115478	58.602
0.0116145	58.6123
0.0116815	58.6228
0.011749	58.6333
0.0118168	58.6439
0.011885	58.6546
0.0119536	58.6543
0.0120226	58.6471
0.0120921	58.64
0.0121619	58.6333
0.0122321	58.6269
0.0123027	58.6205
0.0123737	58.6144
0.0124451	58.6084
0.012517	58.6028
0.0125893	58.5976
0.0126619	58.5925
0.012735	58.5875
0.0128086	58.5827
0.0128825	58.5781
0.0129569	58.5735
0.0130317	58.5692
0.0131069	58.5549
0.0131826	58.5302
0.0132587	58.5059
0.0133352	58.4819
0.0134122	58.4582
0.0134896	58.4335
0.0135675	58.4089
0.0136458	58.3846
0.0137246	58.3606
0.0138038	58.3369
0.0138835	58.3135
0.0139637	58.2785
0.0140443	58.2415
0.0141254	58.2048
0.0142069	58.1684
0.0142889	58.1325
0.0143714	58.0969
0.0144544	58.0616
0.0145378	58.0267
0.0146218	57.9922
0.0147062	57.9579
0.0147911	57.9219
0.0148765	57.8861
0.0149624	57.8582
0.0150487	57.8321
0.0151356	57.8061
0.015223	57.7804
0.0153109	57.7547
0.0153993	57.7293
0.0154882	57.7039
0.0155776	57.6787
0.0156675	57.6537
0.015758	57.6288
0.0158489	57.604
0.0159404	57.5723
0.0160325	57.5364
0.016125	57.5008
0.0162181	57.4654
0.0163117	57.4301
0.0164059	57.3849
0.0165006	57.3359
0.0165959	57.2872
0.0166917	57.2388
0.016788	57.1906
0.016885	57.142
0.0169824	57.0938
0.0170805	57.0458
0.0171791	56.9981
0.0172783	56.9507
0.017378	56.9035
0.0174783	56.8567
0.0175792	56.8104
0.0176807	56.7645
0.0177828	56.7188
0.0178855	56.6719
0.0179887	56.6176
0.0180926	56.5636
0.018197	56.5099
0.0183021	56.4565
0.0184077	56.4034
0.018514	56.3506
0.0186209	56.298
0.0187284	56.2458
0.0188365	56.1939
0.0189452	56.1422
0.0190546	56.0909
0.0191646	56.0398
0.0192752	55.9889
0.0193865	55.9384
0.0194984	55.8881
0.019611	55.8373
0.0197242	55.7632
0.0198381	55.6895
0.0199526	55.6166
0.0200678	55.5442
0.0201837	55.4722
0.0203002	55.4005
0.0204174	55.3291
0.0205353	55.258
0.0206538	55.187
0.020773	55.1164
0.020893	55.046
0.0210136	54.9758
0.0211349	54.9059
0.0212569	54.8362
0.0213796	54.7668
0.021503	54.6976
0.0216272	54.6286
0.021752	54.5599
0.0218776	54.4915
0.0220039	54.4232
0.0221309	54.3553
0.0222587	54.2875
0.0223872	54.22
0.0225165	54.1529
0.0226464	54.0862
0.0227772	54.0198
0.0229087	53.9488
0.0230409	53.8637
0.0231739	53.7789
0.0233077	53.6944
0.0234423	53.6103
0.0235776	53.5258
0.0237137	53.4411
0.0238506	53.3567
0.0239883	53.2727
0.0241268	53.189
0.0242661	53.1057
0.0244062	53.0227
0.0245471	52.9425
0.0246888	52.8696
0.0248313	52.7961
0.0249747	52.712
0.0251189	52.6284
0.0252639	52.5452
0.0254097	52.4622
0.0255564	52.3795
0.025704	52.2972
0.0258523	52.2151
0.0260016	52.1333
0.0261517	52.0512
0.0263027	51.9548
0.0264545	51.8587
0.0266073	51.7631
0.0267609	51.6678
0.0269153	51.5726
0.0270707	51.4771
0.027227	51.382
0.0273842	51.2873
0.0275423	51.1929
0.0277013	51.099
0.0278612	51.0054
0.0280221	50.9122
0.0281838	50.8194
0.0283465	50.7269
0.0285102	50.6349
0.0286748	50.5432
0.0288403	50.4519
0.0290068	50.361
0.0291743	50.2704
0.0293427	50.1803
0.0295121	50.0834
0.0296825	49.9818
0.0298538	49.8777
0.0300262	49.7694
0.0301995	49.6618
0.0303739	49.5535
0.0305492	49.4454
0.0307256	49.3379
0.030903	49.2308
0.0310814	49.1243
0.0312608	49.0181
0.0314413	48.9125
0.0316228	48.8074
0.0318053	48.7027
0.031989	48.5984
0.0321736	48.4947
0.0323594	48.3914
0.0325462	48.2886
0.0327341	48.1847
0.032923	48.0769
0.0331131	47.9695
0.0333043	47.8625
0.0334965	47.7559
0.0336899	47.6488
0.0338844	47.5415
0.03408	47.4347
0.0342768	47.3282
0.0344747	47.2221
0.0346737	47.1164
0.0348739	47.0078
0.0350752	46.8977
0.0352777	46.788
0.0354813	46.6788
0.0356862	46.5699
0.0358922	46.4615
0.0360994	46.3535
0.0363078	46.2459
0.0365174	46.1387
0.0367282	46.0319
0.0369403	45.9255
0.0371535	45.8195
0.037368	45.7139
0.0375837	45.6088
0.0378007	45.504
0.0380189	45.3997
0.0382384	45.2957
0.0384592	45.1922
0.0386812	45.089
0.0389045	44.9863
0.0391291	44.884
0.039355	44.782
0.0395822	44.6805
0.0398107	44.5779
0.0400405	44.4733
0.0402717	44.3692
0.0405042	44.2635
0.040738	44.1579
0.0409732	44.0453
0.0412098	43.9249
0.0414477	43.8051
0.0416869	43.6859
0.0419276	43.5671
0.0421697	43.4489
0.0424131	43.3312
0.042658	43.2139
0.0429042	43.0972
0.0431519	42.981
0.043401	42.8654
0.0436516	42.7502
0.0439036	42.6355
0.044157	42.5213
0.044412	42.4077
0.0446684	42.2945
0.0449262	42.1791
0.0451856	42.064
0.0454465	41.9493
0.0457088	41.8352
0.0459727	41.7216
0.0462381	41.6085
0.046505	41.4959
0.0467735	41.3838
0.0470435	41.2721
0.0473151	41.1602
0.0475883	41.0487
0.047863	40.9377
0.0481393	40.8273
0.0484172	40.7173
0.0486968	40.6078
0.0489779	40.4988
0.0492606	40.3822
0.049545	40.2639
0.049831	40.1441
0.0501187	40.0238
0.0504081	39.904
0.0506991	39.7848
0.0509918	39.6661
0.0512861	39.548
0.0515822	39.4305
0.05188	39.3135
0.0521795	39.197
0.0524807	39.0811
0.0527837	38.9657
0.0530884	38.8509
0.0533949	38.7366
0.0537032	38.6229
0.0540132	38.508
0.054325	38.3935
0.0546387	38.2795
0.0549541	38.1661
0.0552713	38.0532
0.0555904	37.9409
0.0559114	37.829
0.0562341	37.7177
0.0565588	37.607
0.0568853	37.4967
0.0572137	37.387
0.057544	37.2707
0.0578762	37.1549
0.0582103	37.0396
0.0585464	36.9249
0.0588844	36.8107
0.0592243	36.6971
0.0595662	36.584
0.0599101	36.4686
0.060256	36.3537
0.0606038	36.2389
0.0609537	36.124
0.0613056	36.0097
0.0616595	35.8959
0.0620155	35.7827
0.0623735	35.6701
0.0627336	35.558
0.0630957	35.4464
0.06346	35.3354
0.0638263	35.2249
0.0641948	35.115
0.0645654	35.0056
0.0649382	34.8967
0.0653131	34.7883
0.0656901	34.6765
0.0660693	34.5639
0.0664508	34.4519
0.0668344	34.3405
0.0672202	34.2295
0.0676083	34.1175
0.0679986	34.0062
0.0683912	33.8953
0.068786	33.785
0.0691831	33.6753
0.0695825	33.5659
0.0699842	33.4549
0.0703882	33.3446
0.0707946	33.2349
0.0712033	33.1257
0.0716143	33.0171
0.0720278	32.909
0.0724436	32.8014
0.0728618	32.6944
0.0732825	32.5879
0.0737055	32.4808
0.074131	32.3713
0.074559	32.2624
0.0749894	32.1541
0.0754223	32.0462
0.0758578	31.939
0.0762957	31.8322
0.0767361	31.726
0.0771792	31.6204
0.0776247	31.5152
0.0780728	31.4106
0.0785236	31.3066
0.0789769	31.203
0.0794328	31.1
0.0798914	30.996
0.0803526	30.8923
0.0808165	30.7882
0.0812831	30.6831
0.0817523	30.5786
0.0822243	30.4702
0.082699	30.3623
0.0831764	30.2549
0.0836566	30.148
0.0841395	30.0417
0.0846253	29.936
0.0851138	29.8308
0.0856052	29.7261
0.0860994	29.6219
0.0865964	29.5183
0.0870964	29.4153
0.0875992	29.3127
0.0881049	29.2107
0.0886135	29.1092
0.0891251	29.0082
0.0896396	28.9072
0.0901571	28.806
0.0906776	28.7053
0.0912011	28.605
0.0917276	28.5054
0.0922571	28.4062
0.0927897	28.3075
0.0933254	28.2093
0.0938642	28.1117
0.0944061	28.0134
0.0949511	27.9148
0.0954993	27.8167
0.0960506	27.7191
0.0966051	27.622
0.0971628	27.5254
0.0977237	27.4293
0.0982879	27.3326
0.0988553	27.2332
0.099426	27.1342
0.1	27.0343
0.100577	26.9348
0.101158	26.8362
0.101742	26.7383
0.102329	26.6408
0.10292	26.5439
0.103514	26.4475
0.104112	26.3516
0.104713	26.2562
0.105317	26.1613
0.105925	26.0669
0.106537	25.9729
0.107152	25.8795
0.107771	25.786
0.108393	25.692
0.109018	25.5984
0.109648	25.5053
0.110281	25.4128
0.110917	25.3207
0.111558	25.2291
0.112202	25.138
0.11285	25.0473
0.113501	24.9571
0.114156	24.8674
0.114815	24.7768
0.115478	24.685
0.116145	24.5937
0.116815	24.5028
0.11749	24.4124
0.118168	24.3225
0.11885	24.233
0.119536	24.1435
0.120226	24.0535
0.120921	23.964
0.121619	23.8739
0.122321	23.7841
0.123027	23.6947
0.123737	23.6058
0.124451	23.5174
0.12517	23.4294
0.125893	23.3418
0.126619	23.2547
0.12735	23.1681
0.128086	23.0819
0.128825	22.9961
0.129569	22.9108
0.130317	22.826
0.131069	22.7411
0.131826	22.6549
0.132587	22.5691
0.133352	22.4838
0.134122	22.3989
0.134896	22.3138
0.135675	22.2284
0.136458	22.1435
0.137246	22.059
0.138038	21.975
0.138835	21.8914
0.139637	21.8077
0.140443	21.724
0.141254	21.6406
0.142069	21.5578
0.142889	21.4753
0.143714	21.3933
0.144544	21.3117
0.145378	21.2306
0.146218	21.1499
0.147062	21.0696
0.147911	20.9885
0.148765	20.9073
0.149624	20.8265
0.150487	20.7461
0.151356	20.666
0.15223	20.5865
0.153109	20.5073
0.153993	20.4285
0.154882	20.3502
0.155776	20.2723
0.156675	20.1948
0.15758	20.1177
0.158489	20.0411
0.159404	19.9646
0.160325	19.8879
0.16125	19.8116
0.162181	19.7358
0.163117	19.6603
0.164059	19.5845
0.165006	19.5078
0.165959	19.4316
0.166917	19.3557
0.16788	19.2802
0.16885	19.2041
0.169824	19.1279
0.170805	19.052
0.171791	18.9766
0.172783	18.9015
0.17378	18.8269
0.174783	18.7526
0.175792	18.6787
0.176807	18.605
0.177828	18.5318
0.178855	18.459
0.179887	18.3861
0.180926	18.3134
0.18197	18.2411
0.183021	18.1692
0.184077	18.0977
0.18514	18.0265
0.186209	17.9558
0.187284	17.8854
0.188365	17.8154
0.189452	17.7458
0.190546	17.6765
0.191646	17.6076
0.192752	17.5391
0.193865	17.471
0.194984	17.4032
0.19611	17.3358
0.197242	17.2676
0.198381	17.1989
0.199526	17.1303
0.200678	17.0608
0.201837	16.9935
0.203002	16.924
0.204174	16.8548
0.205353	16.7858
0.206538	16.717
0.20773	16.6484
0.20893	16.5801
0.210136	16.512
0.211349	16.4441
0.212569	16.3765
0.213796	16.3091
0.21503	16.2419
0.216272	16.1749
0.21752	16.1082
0.218776	16.0417
0.220039	15.9754
0.221309	15.9094
0.222587	15.8435
0.223872	15.7779
0.225165	15.7125
0.226464	15.6474
0.227772	15.5825
0.229087	15.5178
0.230409	15.4533
0.231739	15.389
0.233077	15.325
0.234423	15.2625
0.235776	15.1989
0.237137	15.1356
0.238506	15.0724
0.239883	15.0095
0.241268	14.9468
0.242661	14.8843
0.244062	14.8221
0.245471	14.7601
0.246888	14.6983
0.248313	14.6367
0.249747	14.5753
0.251189	14.517
0.252639	14.4561
0.254097	14.3953
0.255564	14.3348
0.25704	14.2746
0.258523	14.2145
0.260016	14.1546
0.261517	14.095
0.263027	14.0356
0.264545	13.9763
0.266073	13.9174
0.267609	13.8586
0.269153	13.8
0.270707	13.7416
0.27227	13.6835
0.273842	13.6256
0.275423	13.5678
0.277013	13.5103
0.278612	13.453
0.280221	13.396
0.281838	13.3391
0.283465	13.2425
0.285102	13.189
0.286748	13.1322
0.288403	13.0756
0.290068	13.0192
0.291743	12.963
0.293427	12.9071
0.295121	12.8513
0.296825	12.7957
0.298538	12.7404
0.300262	12.6853
0.301995	12.6303
0.303739	12.5756
0.305492	12.5211
0.307256	12.4668
0.30903	12.4127
0.310814	12.3588
0.312608	12.3051
0.314413	12.2516
0.316228	12.1983
0.318053	12.1453
0.31989	12.0924
0.321736	12.0397
0.323594	11.9872
0.325462	11.935
0.327341	11.8829
0.32923	11.8311
0.331131	11.7794
0.333043	11.7279
0.334965	11.6767
0.336899	11.6365
0.338844	11.5856
0.3408	11.5349
0.342768	11.4844
0.344747	11.4341
0.346737	11.3839
0.348739	11.334
0.350752	11.2842
0.352777	11.2347
0.354813	11.1853
0.356862	11.1362
0.358922	11.0872
0.360994	11.0384
0.363078	10.9899
0.365174	10.9415
0.367282	10.8933
0.369403	10.8453
0.371535	10.7975
0.37368	10.7498
0.375837	10.7024
0.378007	10.6551
0.380189	10.6081
0.382384	10.5612
0.384592	10.5145
0.386812	10.468
0.389045	10.4217
0.391291	10.3756
0.39355	10.3296
0.395822	10.2839
0.398107	10.2399
0.400405	10.1961
0.402717	10.1524
0.405042	10.1089
0.40738	10.0655
0.409732	10.0223
0.412098	9.97927
0.414477	9.93637
0.416869	9.89363
0.419276	9.85104
0.421697	9.8086
0.424131	9.76632
0.42658	9.7242
0.429042	9.68223
0.431519	9.64041
0.43401	9.59875
0.436516	9.55724
0.439036	9.51588
0.44157	9.47468
0.44412	9.43363
0.446684	9.39274
0.449262	9.35199
0.451856	9.3114
0.454465	9.27096
0.457088	9.23067
0.459727	9.19053
0.462381	9.15054
0.46505	9.11071
0.467735	9.07102
0.470435	9.03149
0.473151	8.9921
0.475883	8.95287
0.47863	8.91378
0.481393	8.87484
0.484172	8.83605
0.486968	8.79741
0.489779	8.75891
0.492606	8.72057
0.49545	8.68237
0.49831	8.64432
0.501187	8.60641
0.504081	8.57733
0.506991	8.53962
0.509918	8.50205
0.512861	8.46463
0.515822	8.42735
0.5188	8.39021
0.521795	8.35323
0.524807	8.31638
0.527837	8.27968
0.530884	8.24312
0.533949	8.20671
0.537032	8.17044
0.540132	8.13431
0.54325	8.09832
0.546387	8.06248
0.549541	8.02678
0.552713	7.99121
0.555904	7.95579
0.559114	7.92051
0.562341	7.88537
0.565588	7.85037
0.568853	7.81551
0.572137	7.78078
0.57544	7.7462
0.578762	7.71175
0.582103	7.67744
0.585464	7.64327
0.588844	7.60924
0.592243	7.57534
0.595662	7.54158
0.599101	7.50795
0.60256	7.47446
0.606038	7.44111
0.609537	7.40789
0.613056	7.3748
0.616595	7.34185
0.620155	7.30903
0.623735	7.27635
0.627336	7.2438
0.630957	7.21138
0.6346	7.17909
0.638263	7.14694
0.641948	7.11491
0.645654	7.08302
0.649382	7.05126
0.653131	7.01962
0.656901	6.98812
0.660693	6.95675
0.664508	6.9255
0.668344	6.89439
0.672202	6.8634
0.676083	6.83254
0.679986	6.80181
0.683912	6.77121
0.68786	6.74073
0.691831	6.71038
0.695825	6.68015
0.699842	6.65005
0.703882	6.62008
0.707946	6.59023
0.712033	6.5605
0.716143	6.5309
0.720278	6.50142
0.724436	6.47206
0.728618	6.44283
0.732825	6.41372
0.737055	6.38473
0.74131	6.35587
0.74559	6.32712
0.749894	6.2985
0.754223	6.26999
0.758578	6.24161
0.762957	6.21335
0.767361	6.1852
0.771792	6.15717
0.776247	6.12927
0.780728	6.10148
0.785236	6.0738
0.789769	6.04625
0.794328	6.01881
0.798914	5.99149
0.803526	5.96428
0.808165	5.93719
0.812831	5.91022
0.817523	5.88336
0.822243	5.85661
0.82699	5.82998
0.831764	5.80346
0.836566	5.77706
0.841395	5.75077
0.846253	5.72733
0.851138	5.70122
0.856052	5.67521
0.860994	5.64932
0.865964	5.62354
0.870964	5.59787
0.875992	5.57231
0.881049	5.54686
0.886135	5.52152
0.891251	5.49629
0.896396	5.47116
0.901571	5.44615
0.906776	5.42124
0.912011	5.39645
0.917276	5.37176
0.922571	5.34717
0.927897	5.3227
0.933254	5.29833
0.938642	5.27406
0.944061	5.2499
0.949511	5.22585
0.954993	5.2019
0.960506	5.17806
0.966051	5.15432
0.971628	5.13068
0.977237	5.10715
0.982879	5.08371
0.988553	5.06039
0.99426	5.03716
1	5.01403
1.00577	4.99101
1.01158	4.96809
1.01742	4.94527
1.02329	4.92254
1.0292	4.89992
1.03514	4.8774
1.04112	4.85498
1.04713	4.83265
1.05317	4.81042
1.05925	4.7883
1.06537	4.76626
1.07152	4.74433
1.07771	4.72249
1.08393	4.70075
1.09018	4.67911
1.09648	4.65756
1.10281	4.63611
1.10917	4.61475
1.11558	4.59348
1.12202	4.57231
1.1285	4.55124
1.13501	4.53025
1.14156	4.50936
1.14815	4.48857
1.15478	4.46786
1.16145	4.44725
1.16815	4.42673
1.1749	4.4063
1.18168	4.38596
1.1885	4.36735
1.19536	4.34717
1.20226	4.32708
1.20921	4.30707
1.21619	4.28716
1.22321	4.26733
1.23027	4.24759
1.23737	4.22794
1.24451	4.20838
1.2517	4.18891
1.25893	4.16952
1.26619	4.15022
1.2735	4.13101
1.28086	4.11188
1.28825	4.09284
1.29569	4.07389
1.30317	4.05502
1.31069	4.03623
1.31826	4.01753
1.32587	3.99891
1.33352	3.98038
1.34122	3.96193
1.34896	3.94356
1.35675	3.92528
1.36458	3.90708
1.37246	3.88896
1.38038	3.87092
1.38835	3.85296
1.39637	3.83509
1.40443	3.81729
1.41254	3.79958
1.42069	3.78195
1.42889	3.76439
1.43714	3.74692
1.44544	3.72952
1.45378	3.71221
1.46218	3.69497
1.47062	3.67781
1.47911	3.66073
1.48765	3.64372
1.49624	3.62679
1.50487	3.60994
1.51356	3.59317
1.5223	3.57647
1.53109	3.55985
1.53993	3.5433
1.54882	3.52683
1.55776	3.51044
1.56675	3.49412
1.5758	3.47787
1.58489	3.4617
1.59404	3.4456
1.60325	3.42957
1.6125	3.41362
1.62181	3.39774
1.63117	3.38194
1.64059	3.3662
1.65006	3.35054
1.65959	3.33495
1.66917	3.31943
1.6788	3.30398
1.6885	3.2886
1.69824	3.2733
1.70805	3.25806
1.71791	3.2429
1.72783	3.22781
1.7378	3.21278
1.74783	3.19783
1.75792	3.18295
1.76807	3.16813
1.77828	3.15338
1.78855	3.1387
1.79887	3.12408
1.80926	3.10954
1.8197	3.09506
1.83021	3.08064
1.84077	3.06629
1.8514	3.05201
1.86209	3.0378
1.87284	3.02364
1.88365	3.00956
1.89452	2.99554
1.90546	2.98158
1.91646	2.96769
1.92752	2.95386
1.93865	2.94009
1.94984	2.92639
1.9611	2.91276
1.97242	2.89918
1.98381	2.88567
1.99526	2.87222
2.00678	2.85883
2.01837	2.8455
2.03002	2.83224
2.04174	2.81903
2.05353	2.80589
2.06538	2.79281
2.0773	2.77979
2.0893	2.76683
2.10136	2.75393
2.11349	2.74109
2.12569	2.7283
2.13796	2.71558
2.1503	2.70292
2.16272	2.69031
2.1752	2.67777
2.18776	2.66528
2.20039	2.65285
2.21309	2.64048
2.22587	2.62816
2.23872	2.61591
2.25165	2.60371
2.26464	2.59156
2.27772	2.57948
2.29087	2.56745
2.30409	2.55547
2.31739	2.54355
2.33077	2.53169
2.34423	2.51988
2.35776	2.50813
2.37137	2.49643
2.38506	2.48479
2.39883	2.4732
2.41268	2.46166
2.42661	2.45018
2.44062	2.43875
2.45471	2.42738
2.46888	2.41606
2.48313	2.40479
2.49747	2.39357
2.51189	2.38241
2.52639	2.3713
2.54097	2.36024
2.55564	2.34924
2.5704	2.33828
2.58523	2.32738
2.60016	2.31652
2.61517	2.30572
2.63027	2.29497
2.64545	2.28427
2.66073	2.27362
2.67609	2.26302
2.69153	2.25247
2.70707	2.24197
2.7227	2.23152
2.73842	2.22112
2.75423	2.21076
2.77013	2.20046
2.78612	2.1902
2.80221	2.18
2.81838	2.16984
2.83465	2.15972
2.85102	2.14966
2.86748	2.13964
2.88403	2.12968
2.90068	2.11975
2.91743	2.10988
2.93427	2.10005
2.95121	2.09027
2.96825	2.08053
2.98538	2.07084
3.00262	2.0612
3.01995	2.0516
3.03739	2.04205
3.05492	2.03254
3.07256	2.02307
3.0903	2.01366
3.10814	2.00428
3.12608	1.99495
3.14413	1.98567
3.16228	1.97643
3.18053	1.96723
3.1989	1.95808
3.21736	1.94897
3.23594	1.9399
3.25462	1.93088
3.27341	1.9219
3.2923	1.91296
3.31131	1.90406
3.33043	1.89521
3.34965	1.8864
3.36899	1.87763
3.38844	1.8689
3.408	1.86022
3.42768	1.85157
3.44747	1.84297
3.46737	1.83441
3.48739	1.82589
3.50752	1.81741
3.52777	1.80897
3.54813	1.80057
3.56862	1.79221
3.58922	1.78389
3.60994	1.7756
3.63078	1.76736
3.65174	1.75916
3.67282	1.751
3.69403	1.74288
3.71535	1.73479
3.7368	1.72675
3.75837	1.71874
3.78007	1.71077
3.80189	1.70284
3.82384	1.69495
3.84592	1.68709
3.86812	1.67928
3.89045	1.6715
3.91291	1.66376
3.9355	1.65605
3.95822	1.64838
3.98107	1.64075
4.00405	1.63316
4.02717	1.6256
4.05042	1.61808
4.0738	1.61059
4.09732	1.60314
4.12098	1.59573
4.14477	1.58835
4.16869	1.58101
4.19276	1.5737
4.21697	1.56643
4.24131	1.55919
4.2658	1.55199
4.29042	1.54482
4.31519	1.53769
4.3401	1.53059
4.36516	1.52352
4.39036	1.51649
4.4157	1.5095
4.4412	1.50253
4.46684	1.4956
4.49262	1.48871
4.51856	1.48185
4.54465	1.47502
4.57088	1.46822
4.59727	1.46146
4.62381	1.45473
4.6505	1.44803
4.67735	1.44136
4.70435	1.43473
4.73151	1.42813
4.75883	1.42156
4.7863	1.41502
4.81393	1.40852
4.84172	1.40204
4.86968	1.3956
4.89779	1.38919
4.92606	1.38281
4.9545	1.37646
4.9831	1.37014
5.01187	1.36386
5.04081	1.3576
5.06991	1.35137
5.09918	1.34518
5.12861	1.33901
5.15822	1.33287
5.188	1.32677
5.21795	1.32069
5.24807	1.31464
5.27837	1.30862
5.30884	1.30264
5.33949	1.29668
5.37032	1.29075
5.40132	1.28485
5.4325	1.27897
5.46387	1.27313
5.49541	1.26731
5.52713	1.26153
5.55904	1.25577
5.59114	1.25004
5.62341	1.24434
5.65588	1.23866
5.68853	1.23301
5.72137	1.22739
5.7544	1.2218
5.78762	1.21624
5.82103	1.2107
5.85464	1.20519
5.88844	1.19971
5.92243	1.19425
5.95662	1.18882
5.99101	1.18342
6.0256	1.17804
6.06038	1.17269
6.09537	1.16737
6.13056	1.16207
6.16595	1.1568
6.20155	1.15155
6.23735	1.14633
6.27336	1.14114
6.30957	1.13597
6.346	1.13083
6.38263	1.12571
6.41948	1.12062
6.45654	1.11555
6.49382	1.11051
6.53131	1.10549
6.56901	1.10049
6.60693	1.09553
6.64508	1.09058
6.68344	1.08566
6.72202	1.08077
6.76083	1.07589
6.79986	1.07105
6.83912	1.06622
6.8786	1.06142
6.91831	1.05665
6.95825	1.05189
6.99842	1.04716
7.03882	1.04246
7.07946	1.03778
7.12033	1.03312
7.16143	1.02848
7.20278	1.02387
7.24436	1.01928
7.28618	1.01471
7.32825	1.01016
7.37055	1.00564
7.4131	1.00114
7.4559	0.996664
7.49894	0.992208
7.54223	0.987775
7.58578	0.983363
7.62957	0.978974
7.67361	0.974606
7.71792	0.970259
7.76247	0.965935
7.80728	0.961632
7.85236	0.95735
7.89769	0.953089
7.94328	0.94885
7.98914	0.944632
8.03526	0.940435
8.08165	0.936258
8.12831	0.932103
8.17523	0.927968
8.22243	0.923854
8.2699	0.91976
8.31764	0.915687
8.36566	0.911634
8.41395	0.907601
8.46253	0.903588
8.51138	0.899596
8.56052	0.895623
8.60994	0.89167
8.65964	0.887737
8.70964	0.883824
8.75992	0.87993
8.81049	0.876055
8.86135	0.8722
8.91251	0.868365
8.96396	0.864548
9.01571	0.860751
9.06776	0.856972
9.12011	0.853213
9.17276	0.849472
9.22571	0.84575
9.27897	0.842047
9.33254	0.838363
9.38642	0.834697
9.44061	0.831049
9.49511	0.827419
9.54993	0.823808
9.60506	0.820215
9.66051	0.81664
9.71628	0.813083
9.77237	0.809544
9.82879	0.806023
9.88553	0.80252
9.9426	0.799034
10	0.795565
10.0577	0.792114
10.1158	0.788681
10.1742	0.785265
10.2329	0.781866
10.292	0.778484
10.3514	0.775119
10.4112	0.771772
10.4713	0.768441
10.5317	0.765127
10.5925	0.76183
10.6537	0.758549
10.7152	0.755285
10.7771	0.752038
10.8393	0.748807
10.9018	0.745592
10.9648	0.742394
11.0281	0.739212
11.0917	0.736046
11.1558	0.732896
11.2202	0.729762
11.285	0.726644
11.3501	0.723541
11.4156	0.720455
11.4815	0.717384
11.5478	0.714329
11.6145	0.711289
11.6815	0.708265
11.749	0.705256
11.8168	0.702263
11.885	0.699284
11.9536	0.696321
12.0226	0.693373
12.0921	0.69044
12.1619	0.687522
12.2321	0.684619
12.3027	0.681731
12.3737	0.678857
12.4451	0.675998
12.517	0.673154
12.5893	0.670324
12.6619	0.667509
12.735	0.664708
12.8086	0.661921
12.8825	0.659149
12.9569	0.656391
13.0317	0.653647
13.1069	0.650917
13.1826	0.648201
13.2587	0.645499
13.3352	0.642811
13.4122	0.640136
13.4896	0.637476
13.5675	0.634829
13.6458	0.632195
13.7246	0.629576
13.8038	0.626969
13.8835	0.624376
13.9637	0.621797
14.0443	0.61923
14.1254	0.616677
14.2069	0.614137
14.2889	0.611611
14.3714	0.609097
14.4544	0.606596
14.5378	0.604108
14.6218	0.601633
14.7062	0.599171
14.7911	0.596721
14.8765	0.594284
14.9624	0.59186
15.0487	0.589448
15.1356	0.587049
15.223	0.584662
15.3109	0.582288
15.3993	0.579926
15.4882	0.577576
15.5776	0.575238
15.6675	0.572913
15.758	0.5706
15.8489	0.568298
15.9404	0.566009
16.0325	0.563731
16.125	0.561466
16.2181	0.559212
16.3117	0.55697
16.4059	0.554739
16.5006	0.55252
16.5959	0.550313
16.6917	0.548117
16.788	0.545933
16.885	0.54376
16.9824	0.541599
17.0805	0.539449
17.1791	0.53731
17.2783	0.535182
17.378	0.533066
17.4783	0.53096
17.5792	0.528866
17.6807	0.526782
17.7828	0.52471
17.8855	0.522648
17.9887	0.520597
18.0926	0.518557
18.197	0.516528
18.3021	0.51451
18.4077	0.512502
18.514	0.510504
18.6209	0.508517
18.7284	0.506541
18.8365	0.504575
18.9452	0.50262
19.0546	0.500674
19.1646	0.498739
19.2752	0.496815
19.3865	0.4949
19.4984	0.492996
19.611	0.491101
19.7242	0.489217
19.8381	0.487343
19.9526	0.485479
20.0678	0.483624
20.1837	0.48178
20.3002	0.479945
20.4174	0.47812
20.5353	0.476304
20.6538	0.474499
20.773	0.472703
20.893	0.470916
21.0136	0.46914
21.1349	0.467372
21.2569	0.465614
21.3796	0.463866
21.503	0.462126
21.6272	0.460396
21.752	0.458676
21.8776	0.456964
22.0039	0.455262
22.1309	0.453569
22.2587	0.451885
22.3872	0.45021
22.5165	0.448544
22.6464	0.446887
22.7772	0.445239
22.9087	0.4436
23.0409	0.441969
23.1739	0.440348
23.3077	0.438735
23.4423	0.437131
23.5776	0.435535
23.7137	0.433949
23.8506	0.43237
23.9883	0.430801
24.1268	0.429239
24.2661	0.427687
24.4062	0.426142
24.5471	0.424607
24.6888	0.423079
24.8313	0.42156
24.9747	0.420049
25.1189	0.418546
25.2639	0.417051
25.4097	0.415565
25.5564	0.414087
25.704	0.412617
25.8523	0.411154
26.0016	0.4097
26.1517	0.408254
26.3027	0.406816
26.4545	0.405385
26.6073	0.403963
26.7609	0.402548
26.9153	0.401141
27.0707	0.399742
27.227	0.39835
27.3842	0.396967
27.5423	0.39559
27.7013	0.394222
27.8612	0.392861
28.0221	0.391507
28.1838	0.390161
28.3465	0.388823
28.5102	0.387491
28.6748	0.386168
28.8403	0.384851
29.0068	0.383542
29.1743	0.38224
29.3427	0.380946
29.5121	0.379658
29.6825	0.378378
29.8538	0.377105
30.0262	0.375839
30.1995	0.37458
30.3739	0.373329
30.5492	0.372084
30.7256	0.370846
30.903	0.369615
31.0814	0.368391
31.2608	0.367174
31.4413	0.365964
31.6228	0.36476
31.8053	0.363564
31.989	0.362374
32.1736	0.361191
32.3594	0.360014
32.5462	0.358845
32.7341	0.357681
32.923	0.356525
33.1131	0.355375
33.3043	0.354231
33.4965	0.353094
33.6899	0.351964
33.8844	0.35084
34.08	0.349722
34.2768	0.348611
34.4747	0.347506
34.6737	0.346408
34.8739	0.345315
35.0752	0.344229
35.2777	0.34315
35.4813	0.342076
35.6862	0.341009
35.8922	0.339948
36.0994	0.338892
36.3078	0.337843
36.5174	0.3368
36.7282	0.335764
36.9403	0.334733
37.1535	0.333708
37.368	0.332689
37.5837	0.331676
37.8007	0.330669
38.0189	0.329667
38.2384	0.328672
38.4592	0.327682
38.6812	0.326699
38.9045	0.32572
39.1291	0.324748
39.355	0.323782
39.5822	0.322821
39.8107	0.321865
40.0405	0.320916
40.2717	0.319972
40.5042	0.319033
40.738	0.3181
40.9732	0.317173
41.2098	0.316251
41.4477	0.315335
41.6869	0.314424
41.9276	0.313518
42.1697	0.312618
42.4131	0.311723
42.658	0.310834
42.9042	0.30995
43.1519	0.309071
43.401	0.308198
43.6516	0.307329
43.9036	0.306466
44.157	0.305608
44.412	0.304756
44.6684	0.303908
44.9262	0.303066
45.1856	0.302229
45.4465	0.301397
45.7088	0.300569
45.9727	0.299747
46.2381	0.29893
46.505	0.298118
46.7735	0.297311
47.0435	0.296509
47.3151	0.295712
47.5883	0.29492
47.863	0.294132
48.1393	0.29335
48.4172	0.292572
48.6968	0.291799
48.9779	0.291031
49.2606	0.290267
49.545	0.289509
49.831	0.288755
50.1187	0.288006
50.4081	0.287261
50.6991	0.286521
50.9918	0.285786
51.2861	0.285055
51.5822	0.284329
51.88	0.283608
52.1795	0.282891
52.4807	0.282179
52.7837	0.281471
53.0884	0.280768
53.3949	0.280069
53.7032	0.279374
54.0132	0.278684
54.325	0.277999
54.6387	0.277318
54.9541	0.276641
55.2713	0.275968
55.5904	0.2753
55.9114	0.274636
56.2341	0.273977
56.5588	0.273321
56.8853	0.27267
57.2137	0.272024
57.544	0.271381
57.8762	0.270743
58.2103	0.270108
58.5464	0.269478
58.8844	0.268853
59.2243	0.268231
59.5662	0.267613
59.9101	0.266999
60.256	0.26639
60.6038	0.265784
60.9537	0.265183
61.3056	0.264585
61.6595	0.263992
62.0155	0.263402
62.3735	0.262817
62.7336	0.262235
63.0957	0.261658
63.46	0.261084
63.8263	0.260514
64.1948	0.259948
64.5654	0.259386
64.9382	0.258827
65.3131	0.258273
65.6901	0.257722
66.0693	0.257175
66.4508	0.256632
66.8344	0.256092
67.2202	0.255556
67.6083	0.255024
67.9986	0.254496
68.3912	0.253971
68.786	0.25345
69.1831	0.252933
69.5825	0.252419
69.9842	0.251909
70.3882	0.251402
70.7946	0.250899
71.2033	0.2504
71.6143	0.249904
72.0278	0.249412
72.4436	0.248923
72.8618	0.248438
73.2825	0.247956
73.7055	0.247477
74.131	0.247003
74.559	0.246531
74.9894	0.246063
75.4223	0.245598
75.8578	0.245137
76.2957	0.244679
76.7361	0.244225
77.1792	0.243773
77.6247	0.243326
78.0728	0.242881
78.5236	0.24244
78.9769	0.242002
79.4328	0.241567
79.8914	0.241136
80.3526	0.240708
80.8165	0.240283
81.2831	0.239861
81.7523	0.239442
82.2243	0.239027
82.699	0.238615
83.1764	0.238206
83.6566	0.2378
84.1395	0.237397
84.6253	0.236997
85.1138	0.2366
85.6052	0.236207
86.0994	0.235817
86.5964	0.235429
87.0964	0.235045
87.5992	0.234663
88.1049	0.234285
88.6135	0.23391
89.1251	0.233538
89.6396	0.233168
90.1571	0.232802
90.6776	0.232438
91.2011	0.232078
91.7276	0.23172
92.2571	0.231366
92.7897	0.231014
93.3254	0.230665
93.8642	0.230319
94.4061	0.229976
94.9511	0.229635
95.4993	0.229298
96.0506	0.228963
96.6051	0.228631
97.1628	0.228302
97.7237	0.227976
98.2879	0.227652
98.8553	0.227332
99.426	0.227014
100	0.226698
100.577	0.226386
101.158	0.226076
101.742	0.225769
102.329	0.225464
102.92	0.225162
103.514	0.224863
104.112	0.224567
104.713	0.224273
105.317	0.223972
105.925	0.223672
106.537	0.223375
107.152	0.22308
107.771	0.222787
108.393	0.222497
109.018	0.22221
109.648	0.221925
110.281	0.221642
110.917	0.221362
111.558	0.221084
112.202	0.220808
112.85	0.220535
113.501	0.220264
114.156	0.219996
114.815	0.21973
115.478	0.219466
116.145	0.219205
116.815	0.218946
117.49	0.218689
118.168	0.218434
118.85	0.218182
119.536	0.217932
120.226	0.217684
120.921	0.217439
121.619	0.217195
122.321	0.216954
123.027	0.216715
123.737	0.216479
124.451	0.216244
125.17	0.216012
125.893	0.215782
126.619	0.215554
127.35	0.215328
128.086	0.215105
128.825	0.214883
129.569	0.214664
130.317	0.214446
131.069	0.214231
131.826	0.214018
132.587	0.213807
133.352	0.213598
134.122	0.213391
134.896	0.213186
135.675	0.212983
136.458	0.212782
137.246	0.212583
138.038	0.212387
138.835	0.212192
139.637	0.211999
140.443	0.211808
141.254	0.211619
142.069	0.211432
142.889	0.211247
143.714	0.211064
144.544	0.210883
145.378	0.210704
146.218	0.210526
147.062	0.210351
147.911	0.210177
148.765	0.210006
149.624	0.209836
150.487	0.209668
151.356	0.209502
152.23	0.209338
153.109	0.209175
153.993	0.209015
154.882	0.208856
155.776	0.208699
156.675	0.208544
157.58	0.208391
158.489	0.208239
159.404	0.208089
160.325	0.207941
161.25	0.207795
162.181	0.20765
163.117	0.207507
164.059	0.207366
165.006	0.207227
165.959	0.207089
166.917	0.206953
167.88	0.206819
168.85	0.206686
169.824	0.206555
170.805	0.206426
171.791	0.206298
172.783	0.206172
173.78	0.206048
174.783	0.205925
175.792	0.205804
176.807	0.205684
177.828	0.205566
178.855	0.20545
179.887	0.205335
180.926	0.205222
181.97	0.20511
183.021	0.205
184.077	0.204892
185.14	0.204785
186.209	0.204679
187.284	0.204576
188.365	0.204473
189.452	0.204372
190.546	0.204273
191.646	0.204175
192.752	0.204079
193.865	0.203984
194.984	0.20389
196.11	0.203798
197.242	0.203708
198.381	0.203619
199.526	0.203531
200.678	0.203445
201.837	0.20336
203.002	0.203276
204.174	0.203194
205.353	0.203114
206.538	0.203034
207.73	0.202957
208.93	0.20288
210.136	0.202805
211.349	0.202731
212.569	0.202659
213.796	0.202588
215.03	0.202518
216.272	0.20245
217.52	0.202383
218.776	0.202317
220.039	0.202252
221.309	0.202189
222.587	0.202127
223.872	0.202067
225.165	0.202007
226.464	0.201949
227.772	0.201892
229.087	0.201837
230.409	0.201783
231.739	0.201729
233.077	0.201678
234.423	0.201627
235.776	0.201578
237.137	0.201529
238.506	0.201482
239.883	0.201437
241.268	0.201392
242.661	0.201349
244.062	0.201306
245.471	0.201265
246.888	0.201225
248.313	0.201186
249.747	0.201149
251.189	0.201112
252.639	0.201077
254.097	0.201043
255.564	0.201009
257.04	0.200977
258.523	0.200947
260.016	0.200917
261.517	0.200888
263.027	0.20086
264.545	0.200834
266.073	0.200808
267.609	0.200784
269.153	0.20076
270.707	0.200738
272.27	0.200717
273.842	0.200696
275.423	0.200677
277.013	0.200659
278.612	0.200642
280.221	0.200626
281.838	0.20061
283.465	0.200596
285.102	0.200583
286.748	0.200571
288.403	0.20056
290.068	0.200549
291.743	0.20054
293.427	0.200532
295.121	0.200524
296.825	0.200518
298.538	0.200512
300.262	0.200508
301.995	0.200504
303.739	0.200501
305.492	0.2005
307.256	0.200499
309.03	0.200499
310.814	0.2005
312.608	0.200501
314.413	0.200504
316.228	0.200508
318.053	0.200512
319.89	0.200517
321.736	0.200524
323.594	0.200531
325.462	0.200538
327.341	0.200547
329.23	0.200557
331.131	0.200567
333.043	0.200578
334.965	0.20059
336.899	0.200603
338.844	0.200617
340.8	0.200631
342.768	0.200647
344.747	0.200663
346.737	0.200679
348.739	0.200697
350.752	0.200715
352.777	0.200735
354.813	0.200755
356.862	0.200775
358.922	0.200797
360.994	0.200819
363.078	0.200842
365.174	0.200865
367.282	0.20089
369.403	0.200915
371.535	0.200941
373.68	0.200967
375.837	0.200995
378.007	0.201023
380.189	0.201051
382.384	0.201081
384.592	0.201111
386.812	0.201142
389.045	0.201173
391.291	0.201205
393.55	0.201238
395.822	0.201271
398.107	0.201306
400.405	0.20134
402.717	0.201376
405.042	0.201412
407.38	0.201448
409.732	0.201486
412.098	0.201524
414.477	0.201562
416.869	0.201602
419.276	0.201641
421.697	0.201682
424.131	0.201723
426.58	0.201764
429.042	0.201807
431.519	0.201849
434.01	0.201893
436.516	0.201937
439.036	0.201981
441.57	0.202027
444.12	0.202072
446.684	0.202119
449.262	0.202165
451.856	0.202213
454.465	0.202261
457.088	0.202309
459.727	0.202358
462.381	0.202408
465.05	0.202458
467.735	0.202509
470.435	0.20256
473.151	0.202611
475.883	0.202664
478.63	0.202716
481.393	0.202769
484.172	0.202823
486.968	0.202877
489.779	0.202932
492.606	0.202987
495.45	0.203043
498.31	0.203099
501.187	0.203156
504.081	0.203213
506.991	0.20327
509.918	0.203328
512.861	0.203387
515.822	0.203446
518.8	0.203505
521.795	0.203565
524.807	0.203625
527.837	0.203686
530.884	0.203747
533.949	0.203809
537.032	0.203871
540.132	0.203933
543.25	0.203996
546.387	0.204059
549.541	0.204123
552.713	0.204187
555.904	0.204252
559.114	0.204316
562.341	0.204382
565.588	0.204447
568.853	0.204514
572.137	0.20458
575.44	0.204647
578.762	0.204714
582.103	0.204782
585.464	0.20485
588.844	0.204918
592.243	0.204987
595.662	0.205056
599.101	0.205125
602.56	0.205195
606.038	0.205265
609.537	0.205336
613.056	0.205407
616.595	0.205478
620.155	0.205549
623.735	0.205621
627.336	0.205693
630.957	0.205766
634.6	0.205839
638.263	0.205912
641.948	0.205985
645.654	0.206059
649.382	0.206133
653.131	0.206208
656.901	0.206283
660.693	0.206358
664.508	0.206433
668.344	0.206508
672.202	0.206584
676.083	0.206661
679.986	0.206737
683.912	0.206814
687.86	0.206891
691.831	0.206968
695.825	0.207046
699.842	0.207124
703.882	0.207202
707.946	0.20728
712.033	0.207359
716.143	0.207438
720.278	0.207517
724.436	0.207597
728.618	0.207676
732.825	0.207756
737.055	0.207836
741.31	0.207917
745.59	0.207997
749.894	0.208078
754.223	0.20816
758.578	0.208241
762.957	0.208322
767.361	0.208404
771.792	0.208486
776.247	0.208569
780.728	0.208651
785.236	0.208734
789.769	0.208817
794.328	0.2089
798.914	0.208983
803.526	0.209067
808.165	0.209151
812.831	0.209235
817.523	0.209319
822.243	0.209403
826.99	0.209488
831.764	0.209572
836.566	0.209657
841.395	0.209742
846.253	0.209828
851.138	0.209913
856.052	0.209999
860.994	0.210085
865.964	0.210171
870.964	0.210257
875.992	0.210343
881.049	0.21043
886.135	0.210516
891.251	0.210603
896.396	0.21069
901.571	0.210777
906.776	0.210865
912.011	0.210952
917.276	0.21104
922.571	0.211127
927.897	0.211215
933.254	0.211303
938.642	0.211392
944.061	0.21148
949.511	0.211568
954.993	0.211657
960.506	0.211746
966.051	0.211835
971.628	0.211924
977.237	0.212013
982.879	0.212102
988.553	0.212191
994.26	0.212281
1000	0.212371
1005.77	0.212464
1011.58	0.212558
1017.42	0.212652
1023.29	0.212746
1029.2	0.21284
1035.14	0.212934
1041.12	0.213029
1047.13	0.213123
1053.17	0.213218
1059.25	0.213312
1065.37	0.213407
1071.52	0.213502
1077.71	0.213597
1083.93	0.213692
1090.18	0.213787
1096.48	0.213882
1102.81	0.213977
1109.17	0.214073
1115.58	0.214168
1122.02	0.214264
1128.5	0.214359
1135.01	0.214455
1141.56	0.214551
1148.15	0.214647
1154.78	0.214743
1161.45	0.214839
1168.15	0.214935
1174.9	0.215031
1181.68	0.215127
1188.5	0.215223
1195.36	0.21532
1202.26	0.215416
1209.21	0.215512
1216.19	0.215609
1223.21	0.215706
1230.27	0.215802
1237.37	0.215899
1244.51	0.215996
1251.7	0.216092
1258.93	0.216189
1266.19	0.216286
1273.5	0.216383
1280.86	0.21648
1288.25	0.216577
1295.69	0.216674
1303.17	0.216772
1310.69	0.216869
1318.26	0.216966
1325.87	0.217063
1333.52	0.217161
1341.22	0.217258
1348.96	0.217355
1356.75	0.217453
1364.58	0.21755
1372.46	0.217648
1380.38	0.217745
1388.35	0.217843
1396.37	0.217941
1404.43	0.218038
1412.54	0.218136
1420.69	0.218234
1428.89	0.218331
1437.14	0.218429
1445.44	0.218527
1453.78	0.218625
1462.18	0.218723
1470.62	0.21882
1479.11	0.218918
1487.65	0.219016
1496.24	0.219114
1504.87	0.219212
1513.56	0.21931
1522.3	0.219408
1531.09	0.219506
1539.93	0.219604
1548.82	0.219702
1557.76	0.2198
1566.75	0.219898
1575.8	0.219996
1584.89	0.220094
1594.04	0.220192
1603.25	0.22029
1612.5	0.220388
1621.81	0.220486
1631.17	0.220584
1640.59	0.220682
1650.06	0.22078
1659.59	0.220878
1669.17	0.220976
1678.8	0.221074
1688.5	0.221172
1698.24	0.221271
1708.05	0.221369
1717.91	0.221467
1727.83	0.221565
1737.8	0.221663
1747.83	0.221761
1757.92	0.221859
1768.07	0.221957
1778.28	0.222055
1788.55	0.222153
1798.87	0.222251
1809.26	0.222349
1819.7	0.222447
1830.21	0.222545
1840.77	0.222643
1851.4	0.22274
1862.09	0.222838
1872.84	0.222936
1883.65	0.223034
1894.52	0.223132
1905.46	0.22323
1916.46	0.223328
1927.52	0.223425
1938.65	0.223523
1949.84	0.223621
1961.1	0.223719
1972.42	0.223816
1983.81	0.223914
1995.26	0.224012
2006.78	0.224109
2018.37	0.224207
2030.02	0.224305
2041.74	0.224402
2053.53	0.2245
2065.38	0.224597
2077.3	0.224695
2089.3	0.224792
2101.36	0.22489
2113.49	0.224987
2125.69	0.225084
2137.96	0.225182
2150.3	0.225279
2162.72	0.225376
2175.2	0.225474
2187.76	0.225571
2200.39	0.225668
2213.09	0.225765
2225.87	0.225862
2238.72	0.225959
2251.65	0.226056
2264.64	0.226153
2277.72	0.22625
2290.87	0.226347
2304.09	0.226444
2317.39	0.226541
2330.77	0.226638
2344.23	0.226735
2357.76	0.226831
2371.37	0.226928
2385.06	0.227025
2398.83	0.227121
2412.68	0.227218
2426.61	0.227314
2440.62	0.227411
2454.71	0.227507
2468.88	0.227604
2483.13	0.2277
2497.47	0.227797
2511.89	0.227893
2526.39	0.227989
2540.97	0.228085
2555.64	0.228181
2570.4	0.228277
2585.23	0.228374
2600.16	0.22847
2615.17	0.228566
2630.27	0.228661
2645.45	0.228757
2660.73	0.228853
2676.09	0.228949
2691.53	0.229045
2707.07	0.22914
2722.7	0.229236
2738.42	0.229332
2754.23	0.229427
2770.13	0.229523
2786.12	0.229618
2802.21	0.229713
2818.38	0.229809
2834.65	0.229904
2851.02	0.229999
2867.48	0.230095
2884.03	0.23019
2900.68	0.230285
2917.43	0.23038
2934.27	0.230475
2951.21	0.23057
2968.25	0.230665
2985.38	0.230759
3002.62	0.230854
3019.95	0.230949
3037.39	0.231043
3054.92	0.231138
3072.56	0.231233
3090.3	0.231327
3108.14	0.231422
3126.08	0.231516
3144.13	0.23161
3162.28	0.231705
3180.53	0.231799
3198.9	0.231893
3217.36	0.231987
3235.94	0.232081
3254.62	0.232175
3273.41	0.232269
3292.3	0.232363
3311.31	0.232457
3330.43	0.23255
3349.65	0.232644
3368.99	0.232738
3388.44	0.232831
3408	0.232925
3427.68	0.233018
3447.47	0.233112
3467.37	0.233205
3487.39	0.233298
3507.52	0.233392
3527.77	0.233485
3548.13	0.233578
3568.62	0.233671
3589.22	0.233764
3609.94	0.233857
3630.78	0.23395
3651.74	0.234043
3672.82	0.234135
3694.03	0.234228
3715.35	0.234321
3736.8	0.234413
3758.37	0.234506
3780.07	0.234598
3801.89	0.234691
3823.84	0.234783
3845.92	0.234875
3868.12	0.234967
3890.45	0.23506
3912.91	0.235152
3935.5	0.235244
3958.22	0.235336
3981.07	0.235428
4004.05	0.235519
4027.17	0.235611
4050.42	0.235703
4073.8	0.235795
4097.32	0.235886
4120.98	0.235978
4144.77	0.236069
4168.69	0.236161
4192.76	0.236252
4216.97	0.236343
4241.31	0.236434
4265.8	0.236526
4290.42	0.236617
4315.19	0.236708
4340.1	0.236799
4365.16	0.23689
4390.36	0.23698
4415.7	0.237071
4441.2	0.237162
4466.84	0.237253
4492.62	0.237343
4518.56	0.237434
4544.65	0.237524
4570.88	0.237614
4597.27	0.237705
4623.81	0.237795
4650.5	0.237885
4677.35	0.237975
4704.35	0.238066
4731.51	0.238156
4758.83	0.238246
4786.3	0.238335
4813.93	0.238425
4841.72	0.238515
4869.68	0.238605
4897.79	0.238694
4926.06	0.238784
4954.5	0.238873
4983.1	0.238963
5011.87	0.239052
5040.81	0.239142
5069.91	0.239231
5099.18	0.23932
5128.61	0.239409
5158.22	0.239498
5188	0.239587
5217.95	0.239676
5248.07	0.239765
5278.37	0.239854
5308.84	0.239943
5339.49	0.240031
5370.32	0.24012
5401.32	0.240209
5432.5	0.240297
5463.87	0.240386
5495.41	0.240474
5527.13	0.240562
5559.04	0.240651
5591.14	0.240739
5623.41	0.240827
5655.88	0.240915
5688.53	0.241003
5721.37	0.241091
5754.4	0.241179
5787.62	0.241267
5821.03	0.241354
5854.64	0.241442
5888.44	0.24153
5922.43	0.241617
5956.62	0.241705
5991.01	0.241792
6025.6	0.24188
6060.38	0.241967
6095.37	0.242054
6130.56	0.242142
6165.95	0.242229
6201.55	0.242316
6237.35	0.242403
6273.36	0.24249
6309.57	0.242577
6346	0.242663
6382.63	0.24275
6419.48	0.242837
6456.54	0.242924
6493.82	0.24301
6531.31	0.243097
6569.01	0.243183
6606.93	0.24327
6645.08	0.243356
6683.44	0.243442
6722.02	0.243529
6760.83	0.243615
6799.86	0.243701
6839.12	0.243787
6878.6	0.243873
6918.31	0.243959
6958.25	0.244045
6998.42	0.244131
7038.82	0.244216
7079.46	0.244302
7120.33	0.244388
7161.43	0.244473
7202.78	0.244559
7244.36	0.244644
7286.18	0.24473
7328.25	0.244815
7370.55	0.2449
7413.1	0.244986
7455.9	0.245071
7498.94	0.245156
7542.23	0.245241
7585.78	0.245326
7629.57	0.245411
7673.61	0.245496
7717.92	0.245581
7762.47	0.245665
7807.28	0.24575
7852.36	0.245835
7897.69	0.245919
7943.28	0.246004
7989.14	0.246088
8035.26	0.246173
8081.65	0.246257
8128.31	0.246342
8175.23	0.246426
8222.43	0.24651
8269.9	0.246594
8317.64	0.246678
8365.66	0.246762
8413.95	0.246846
8462.53	0.24693
8511.38	0.247014
8560.52	0.247098
8609.94	0.247182
8659.64	0.247266
8709.64	0.247349
8759.92	0.247433
8810.49	0.247516
8861.35	0.2476
8912.51	0.247683
8963.96	0.247767
9015.71	0.24785
9067.76	0.247933
9120.11	0.248017
9172.76	0.2481
9225.71	0.248183
9278.97	0.248266
9332.54	0.248349
9386.42	0.248432
9440.61	0.248515
9495.11	0.248598
9549.93	0.248681
9605.06	0.248764
9660.51	0.248846
9716.28	0.248929
9772.37	0.249012
9828.79	0.249094
9885.53	0.249177
9942.6	0.249259
10000	0.249342
10057.7	0.249424
10115.8	0.249507
10174.2	0.249589
10232.9	0.249671
10292	0.249753
10351.4	0.249835
10411.2	0.249918
10471.3	0.25
10531.7	0.250082
10592.5	0.250164
10653.7	0.250245
10715.2	0.250327
10777.1	0.250409
10839.3	0.250491
10901.8	0.250573
10964.8	0.250654
11028.1	0.250736
11091.7	0.250818
11155.8	0.250899
11220.2	0.250981
11285	0.251062
11350.1	0.251143
11415.6	0.251225
11481.5	0.251306
11547.8	0.251387
11614.5	0.251469
11681.5	0.25155
11749	0.251631
11816.8	0.251712
11885	0.251793
11953.6	0.251874
12022.6	0.251955
12092.1	0.252036
12161.9	0.252117
12232.1	0.252198
12302.7	0.252279
12373.7	0.252359
12445.1	0.25244
12517	0.252521
12589.3	0.252601
12661.9	0.252682
12735	0.252762
12808.6	0.252843
12882.5	0.252923
12956.9	0.253004
13031.7	0.253084
13106.9	0.253164
13182.6	0.253244
13258.7	0.253325
13335.2	0.253405
13412.2	0.253485
13489.6	0.253565
13567.5	0.253645
13645.8	0.253725
13724.6	0.253805
13803.8	0.253885
13883.5	0.253964
13963.7	0.254044
14044.3	0.254124
14125.4	0.254204
14206.9	0.254283
14288.9	0.254363
14371.4	0.254442
14454.4	0.254522
14537.8	0.254601
14621.8	0.254681
14706.2	0.25476
14791.1	0.254839
14876.5	0.254919
14962.4	0.254998
15048.7	0.255077
15135.6	0.255156
15223	0.255235
15310.9	0.255314
15399.3	0.255393
15488.2	0.255472
15577.6	0.255551
15667.5	0.25563
15758	0.255708
15848.9	0.255787
15940.4	0.255866
16032.5	0.255944
16125	0.256023
16218.1	0.256102
16311.7	0.25618
16405.9	0.256258
16500.6	0.256337
16595.9	0.256415
16691.7	0.256493
16788	0.256572
16885	0.25665
16982.4	0.256728
17080.5	0.256806
17179.1	0.256884
17278.3	0.256962
17378	0.25704
17478.3	0.257118
17579.2	0.257196
17680.7	0.257274
17782.8	0.257352
17885.5	0.257429
17988.7	0.257507
18092.6	0.257585
18197	0.257662
18302.1	0.25774
18407.7	0.257817
18514	0.257894
18620.9	0.257972
18728.4	0.258049
18836.5	0.258126
18945.2	0.258204
19054.6	0.258281
19164.6	0.258358
19275.2	0.258435
19386.5	0.258512
19498.4	0.258589
19611	0.258666
19724.2	0.258743
19838.1	0.25882
19952.6	0.258897
20067.8	0.258973
20183.7	0.25905
20300.2	0.259127
20417.4	0.259203
20535.3	0.25928
20653.8	0.259356
20773	0.259433
20893	0.259509
21013.6	0.259585
21134.9	0.259662
21256.9	0.259738
21379.6	0.259814
21503	0.25989
21627.2	0.259967
21752	0.260043
21877.6	0.260119
22003.9	0.260195
22130.9	0.26027
22258.7	0.260346
22387.2	0.260422
22516.5	0.260498
22646.4	0.260574
22777.2	0.260649
22908.7	0.260725
23040.9	0.260801
23173.9	0.260876
23307.7	0.260952
23442.3	0.261027
23577.6	0.261102
23713.7	0.261178
23850.6	0.261253
23988.3	0.261328
24126.8	0.261404
24266.1	0.261479
24406.2	0.261554
24547.1	0.261629
24688.8	0.261704
24831.3	0.261779
24974.7	0.261854
25118.9	0.261929
25263.9	0.262003
25409.7	0.262078
25556.4	0.262153
25704	0.262228
25852.3	0.262302
26001.6	0.262377
26151.7	0.262451
26302.7	0.262526
26454.5	0.2626
26607.3	0.262675
26760.9	0.262749
26915.3	0.262823
27070.7	0.262898
27227	0.262972
27384.2	0.263046
27542.3	0.26312
27701.3	0.263194
27861.2	0.263268
28022.1	0.263342
28183.8	0.263416
28346.5	0.26349
28510.2	0.263564
28674.8	0.263637
28840.3	0.263711
29006.8	0.263785
29174.3	0.263859
29342.7	0.263932
29512.1	0.264006
29682.5	0.264079
29853.8	0.264153
30026.2	0.264226
30199.5	0.2643
30373.9	0.264373
30549.2	0.264446
30725.6	0.264519
30903	0.264593
31081.4	0.264666
31260.8	0.264739
31441.3	0.264812
31622.8	0.264885
31805.3	0.264958
31989	0.265031
32173.6	0.265104
32359.4	0.265177
32546.2	0.265249
32734.1	0.265322
32923	0.265395
33113.1	0.265467
33304.3	0.26554
33496.5	0.265613
33689.9	0.265685
33884.4	0.265758
34080	0.26583
34276.8	0.265902
34474.7	0.265975
34673.7	0.266047
34873.9	0.266119
35075.2	0.266192
35277.7	0.266264
35481.3	0.266336
35686.2	0.266408
35892.2	0.26648
36099.4	0.266552
36307.8	0.266624
36517.4	0.266696
36728.2	0.266768
36940.3	0.26684
37153.5	0.266911
37368	0.266983
37583.7	0.267055
37800.7	0.267127
38018.9	0.267198
38238.4	0.26727
38459.2	0.267341
38681.2	0.267413
38904.5	0.267484
39129.1	0.267556
39355	0.267627
39582.2	0.267698
39810.7	0.26777
40040.5	0.267841
40271.7	0.267912
40504.2	0.267983
40738	0.268055
40973.2	0.268126
41209.8	0.268197
41447.7	0.268268
41686.9	0.268339
41927.6	0.26841
42169.7	0.26848
42413.1	0.268551
42658	0.268622
42904.2	0.268693
43151.9	0.268764
43401	0.268834
43651.6	0.268905
43903.6	0.268976
44157	0.269046
44412	0.269117
44668.4	0.269187
44926.2	0.269258
45185.6	0.269328
45446.5	0.269398
45708.8	0.269469
45972.7	0.269539
46238.1	0.269609
46505	0.26968
46773.5	0.26975
47043.5	0.26982
47315.1	0.26989
47588.3	0.26996
47863	0.27003
48139.3	0.2701
48417.2	0.27017
48696.8	0.27024
48977.9	0.27031
49260.6	0.27038
49545	0.27045
49831	0.270519
50118.7	0.270589
50408.1	0.270659
50699.1	0.270729
50991.8	0.270798
51286.1	0.270868
51582.2	0.270937
51880	0.271007
52179.5	0.271076
52480.7	0.271146
52783.7	0.271215
53088.4	0.271285
53394.9	0.271354
53703.2	0.271423
54013.2	0.271493
54325	0.271562
54638.7	0.271631
54954.1	0.2717
55271.3	0.27177
55590.4	0.271839
55911.4	0.271908
56234.1	0.271977
56558.8	0.272046
56885.3	0.272115
57213.7	0.272184
57544	0.272253
57876.2	0.272322
58210.3	0.27239
58546.4	0.272459
58884.4	0.272528
59224.3	0.272597
59566.2	0.272665
59910.1	0.272734
60256	0.272803
60603.8	0.272871
60953.7	0.27294
61305.6	0.273009
61659.5	0.273077
62015.5	0.273146
62373.5	0.273214
62733.6	0.273283
63095.7	0.273351
63460	0.273419
63826.3	0.273488
64194.8	0.273556
64565.4	0.273624
64938.2	0.273693
65313.1	0.273761
65690.1	0.273829
66069.3	0.273897
66450.8	0.273965
66834.4	0.274033
67220.2	0.274101
67608.3	0.27417
67998.6	0.274238
68391.2	0.274306
68786	0.274374
69183.1	0.274441
69582.5	0.274509
69984.2	0.274577
70388.2	0.274645
70794.6	0.274713
71203.3	0.274781
71614.3	0.274848
72027.8	0.274916
72443.6	0.274984
72861.8	0.275052
73282.5	0.275119
73705.5	0.275187
74131	0.275254
74559	0.275322
74989.4	0.27539
75422.3	0.275457
75857.8	0.275525
76295.7	0.275592
76736.1	0.27566
77179.2	0.275727
77624.7	0.275794
78072.8	0.275862
78523.6	0.275929
78976.9	0.275996
79432.8	0.276064
79891.4	0.276131
80352.6	0.276198
80816.5	0.276265
81283.1	0.276333
81752.3	0.2764
82224.3	0.276467
82699	0.276534
83176.4	0.276601
83656.6	0.276668
84139.5	0.276735
84625.3	0.276802
85113.8	0.276869
85605.2	0.276936
86099.4	0.277003
86596.4	0.27707
87096.4	0.277137
87599.2	0.277204
88104.9	0.277271
88613.5	0.277338
89125.1	0.277404
89639.6	0.277471
90157.1	0.277538
90677.6	0.277605
91201.1	0.277671
91727.6	0.277738
92257.1	0.277805
92789.7	0.277871
93325.4	0.277938
93864.2	0.278005
94406.1	0.278071
94951.1	0.278138
95499.3	0.278204
96050.6	0.278271
96605.1	0.278337
97162.8	0.278404
97723.7	0.27847
98287.9	0.278537
98855.3	0.278603
99426	0.27867
100000	0.278736
100577	0.278802
101158	0.278869
101742	0.278935
102329	0.279001
102920	0.279068
103514	0.279134
104112	0.2792
104713	0.279267
105317	0.279333
105925	0.279399
106537	0.279465
107152	0.279531
107771	0.279597
108393	0.279664
109018	0.27973
109648	0.279796
110281	0.279862
110917	0.279928
111558	0.279994
112202	0.28006
112850	0.280126
113501	0.280192
114156	0.280258
114815	0.280324
115478	0.28039
116145	0.280456
116815	0.280522
117490	0.280588
118168	0.280653
118850	0.280719
119536	0.280785
120226	0.280851
120921	0.280917
121619	0.280983
122321	0.281048
123027	0.281114
123737	0.28118
124451	0.281246
125170	0.281311
125893	0.281377
126619	0.281443
127350	0.281508
128086	0.281574
128825	0.28164
129569	0.281705
130317	0.281771
131069	0.281837
131826	0.281902
132587	0.281968
133352	0.282033
134122	0.282099
134896	0.282164
135675	0.28223
136458	0.282295
137246	0.282361
138038	0.282426
138835	0.282492
139637	0.282557
140443	0.282623
141254	0.282688
142069	0.282754
142889	0.282819
143714	0.282885
144544	0.28295
145378	0.283015
146218	0.283081
147062	0.283146
147911	0.283211
148765	0.283277
149624	0.283342
150487	0.283407
151356	0.283473
152230	0.283538
153109	0.283603
153993	0.283669
154882	0.283734
155776	0.283799
156675	0.283864
157580	0.28393
158489	0.283995
159404	0.28406
160325	0.284125
161250	0.28419
162181	0.284256
163117	0.284321
164059	0.284386
165006	0.284451
165959	0.284516
166917	0.284581
167880	0.284646
168850	0.284712
169824	0.284777
170805	0.284842
171791	0.284907
172783	0.284972
173780	0.285037
174783	0.285102
175792	0.285167
176807	0.285232
177828	0.285297
178855	0.285362
179887	0.285427
180926	0.285492
181970	0.285557
183021	0.285622
184077	0.285687
185140	0.285752
186209	0.285817
187284	0.285882
188365	0.285947
189452	0.286012
190546	0.286077
191646	0.286142
192752	0.286207
193865	0.286272
194984	0.286337
196110	0.286402
197242	0.286467
198381	0.286532
199526	0.286597
200678	0.286662
201837	0.286727
203002	0.286792
204174	0.286856
205353	0.286921
206538	0.286986
207730	0.287051
208930	0.287116
210136	0.287181
211349	0.287246
212569	0.287311
213796	0.287375
215030	0.28744
216272	0.287505
217520	0.28757
218776	0.287635
220039	0.2877
221309	0.287764
222587	0.287829
223872	0.287894
225165	0.287959
226464	0.288024
227772	0.288089
229087	0.288153
230409	0.288218
231739	0.288283
233077	0.288348
234423	0.288413
235776	0.288477
237137	0.288542
238506	0.288607
239883	0.288672
241268	0.288737
242661	0.288801
244062	0.288866
245471	0.288931
246888	0.288996
248313	0.28906
249747	0.289125
251189	0.28919
252639	0.289255
254097	0.289319
255564	0.289384
257040	0.289449
258523	0.289514
260016	0.289579
261517	0.289643
263027	0.289708
264545	0.289773
266073	0.289838
267609	0.289902
269153	0.289967
270707	0.290032
272270	0.290097
273842	0.290161
275423	0.290226
277013	0.290291
278612	0.290356
280221	0.29042
281838	0.290485
283465	0.29055
285102	0.290615
286748	0.290679
288403	0.290744
290068	0.290809
291743	0.290874
293427	0.290938
295121	0.291003
296825	0.291068
298538	0.291133
300262	0.291197
301995	0.291262
303739	0.291327
305492	0.291392
307256	0.291456
309030	0.291521
310814	0.291586
312608	0.291651
314413	0.291715
316228	0.29178
318053	0.291845
319890	0.29191
321736	0.291974
323594	0.292039
325462	0.292104
327341	0.292169
329230	0.292233
331131	0.292298
333043	0.292363
334965	0.292428
336899	0.292493
338844	0.292557
340800	0.292622
342768	0.292687
344747	0.292752
346737	0.292816
348739	0.292881
350752	0.292946
352777	0.293011
354813	0.293076
356862	0.29314
358922	0.293205
360994	0.29327
363078	0.293335
365174	0.2934
367282	0.293464
369403	0.293529
371535	0.293594
373680	0.293659
375837	0.293724
378007	0.293789
380189	0.293853
382384	0.293918
384592	0.293983
386812	0.294048
389045	0.294113
391291	0.294178
393550	0.294243
395822	0.294307
398107	0.294372
400405	0.294437
402717	0.294502
405042	0.294567
407380	0.294632
409732	0.294697
412098	0.294762
414477	0.294826
416869	0.294891
419276	0.294956
421697	0.295021
424131	0.295086
426580	0.295151
429042	0.295216
431519	0.295281
434010	0.295346
436516	0.295411
439036	0.295476
441570	0.295541
444120	0.295606
446684	0.295671
449262	0.295735
451856	0.2958
454465	0.295865
457088	0.29593
459727	0.295995
462381	0.29606
465050	0.296125
467735	0.29619
470435	0.296255
473151	0.29632
475883	0.296385
478630	0.29645
481393	0.296516
484172	0.296581
486968	0.296646
489779	0.296711
492606	0.296776
495450	0.296841
498310	0.296906
501187	0.296971
504081	0.297036
506991	0.297101
509918	0.297166
512861	0.297231
515822	0.297296
518800	0.297361
521795	0.297427
524807	0.297492
527837	0.297557
530884	0.297622
533949	0.297687
537032	0.297752
540132	0.297817
543250	0.297883
546387	0.297948
549541	0.298013
552713	0.298078
555904	0.298143
559114	0.298209
562341	0.298274
565588	0.298339
568853	0.298404
572137	0.29847
575440	0.298535
578762	0.2986
582103	0.298665
585464	0.298731
588844	0.298796
592243	0.298861
595662	0.298926
599101	0.298992
602560	0.299057
606038	0.299122
609537	0.299188
613056	0.299253
616595	0.299318
620155	0.299384
623735	0.299449
627336	0.299514
630957	0.29958
634600	0.299645
638263	0.29971
641948	0.299776
645654	0.299841
649382	0.299907
653131	0.299972
656901	0.300038
660693	0.300103
664508	0.300168
668344	0.300234
672202	0.300299
676083	0.300365
679986	0.30043
683912	0.300496
687860	0.300561
691831	0.300627
695825	0.300692
699842	0.300758
703882	0.300823
707946	0.300889
712033	0.300954
716143	0.30102
720278	0.301086
724436	0.301151
728618	0.301217
732825	0.301282
737055	0.301348
741310	0.301414
745590	0.301479
749894	0.301545
754223	0.30161
758578	0.301676
762957	0.301742
767361	0.301808
771792	0.301873
776247	0.301939
780728	0.302005
785236	0.30207
789769	0.302136
794328	0.302202
798914	0.302268
803526	0.302333
808165	0.302399
812831	0.302465
817523	0.302531
822243	0.302596
826990	0.302662
831764	0.302728
836566	0.302794
841395	0.30286
846253	0.302926
851138	0.302991
856052	0.303057
860994	0.303123
865964	0.303189
870964	0.303255
875992	0.303321
881049	0.303387
886135	0.303453
891251	0.303519
896396	0.303585
901571	0.303651
906776	0.303717
912011	0.303783
917276	0.303849
922571	0.303915
927897	0.303981
933254	0.304047
938642	0.304113
944061	0.304179
949511	0.304245
954993	0.304311
960506	0.304377
966051	0.304443
971628	0.304509
977237	0.304575
982879	0.304641
988553	0.304707
994260	0.304774
1e+06	0.30484
1.00577e+06	0.304906
1.01158e+06	0.304972
1.01742e+06	0.305038
1.02329e+06	0.305105
1.0292e+06	0.305171
1.03514e+06	0.305237
1.04112e+06	0.305303
1.04713e+06	0.30537
1.05317e+06	0.305436
1.05925e+06	0.305502
1.06537e+06	0.305568
1.07152e+06	0.305635
1.07771e+06	0.305701
1.08393e+06	0.305767
1.09018e+06	0.305834
1.09648e+06	0.3059
1.10281e+06	0.305966
1.10917e+06	0.306033
1.11558e+06	0.306099
1.12202e+06	0.306165
1.1285e+06	0.306232
1.13501e+06	0.306298
1.14156e+06	0.306365
1.14815e+06	0.306431
1.15478e+06	0.306498
1.16145e+06	0.306564
1.16815e+06	0.306631
1.1749e+06	0.306697
1.18168e+06	0.306764
1.1885e+06	0.30683
1.19536e+06	0.306897
1.20226e+06	0.306963
1.20921e+06	0.30703
1.21619e+06	0.307096
1.22321e+06	0.307163
1.23027e+06	0.307229
1.23737e+06	0.307296
1.24451e+06	0.307363
1.2517e+06	0.307429
1.25893e+06	0.307496
1.26619e+06	0.307563
1.2735e+06	0.307629
1.28086e+06	0.307696
1.28825e+06	0.307763
1.29569e+06	0.307829
1.30317e+06	0.307896
1.31069e+06	0.307963
1.31826e+06	0.30803
1.32587e+06	0.308096
1.33352e+06	0.308163
1.34122e+06	0.30823
1.34896e+06	0.308297
1.35675e+06	0.308364
1.36458e+06	0.30843
1.37246e+06	0.308497
1.38038e+06	0.308564
1.38835e+06	0.308631
1.39637e+06	0.308698
1.40443e+06	0.308765
1.41254e+06	0.308832
1.42069e+06	0.308898
1.42889e+06	0.308965
1.43714e+06	0.309032
1.44544e+06	0.309099
1.45378e+06	0.309166
1.46218e+06	0.309233
1.47062e+06	0.3093
1.47911e+06	0.309367
1.48765e+06	0.309434
1.49624e+06	0.309501
1.50487e+06	0.309568
1.51356e+06	0.309635
1.5223e+06	0.309702
1.53109e+06	0.30977
1.53993e+06	0.309837
1.54882e+06	0.309904
1.55776e+06	0.309971
1.56675e+06	0.310038
1.5758e+06	0.310105
1.58489e+06	0.310172
1.59404e+06	0.310239
1.60325e+06	0.310307
1.6125e+06	0.310374
1.62181e+06	0.310441
1.63117e+06	0.310508
1.64059e+06	0.310576
1.65006e+06	0.310643
1.65959e+06	0.31071
1.66917e+06	0.310777
1.6788e+06	0.310845
1.6885e+06	0.310912
1.69824e+06	0.310979
1.70805e+06	0.311047
1.71791e+06	0.311114
1.72783e+06	0.311181
1.7378e+06	0.311249
1.74783e+06	0.311316
1.75792e+06	0.311384
1.76807e+06	0.311451
1.77828e+06	0.311519
1.78855e+06	0.311586
1.79887e+06	0.311653
1.80926e+06	0.311721
1.8197e+06	0.311788
1.83021e+06	0.311856
1.84077e+06	0.311923
1.8514e+06	0.311991
1.86209e+06	0.312059
1.87284e+06	0.312126
1.88365e+06	0.312194
1.89452e+06	0.312261
1.90546e+06	0.312329
1.91646e+06	0.312397
1.92752e+06	0.312464
1.93865e+06	0.312532
1.94984e+06	0.3126
1.9611e+06	0.312667
1.97242e+06	0.312735
1.98381e+06	0.312803
1.99526e+06	0.31287
2.00678e+06	0.312938
2.01837e+06	0.313006
2.03002e+06	0.313074
2.04174e+06	0.313141
2.05353e+06	0.313209
2.06538e+06	0.313277
2.0773e+06	0.313345
2.0893e+06	0.313413
2.10136e+06	0.313481
2.11349e+06	0.313548
2.12569e+06	0.313616
2.13796e+06	0.313684
2.1503e+06	0.313752
2.16272e+06	0.31382
2.1752e+06	0.313888
2.18776e+06	0.313956
2.20039e+06	0.314024
2.21309e+06	0.314092
2.22587e+06	0.31416
2.23872e+06	0.314228
2.25165e+06	0.314296
2.26464e+06	0.314364
2.27772e+06	0.314432
2.29087e+06	0.3145
2.30409e+06	0.314568
2.31739e+06	0.314636
2.33077e+06	0.314705
2.34423e+06	0.314773
2.35776e+06	0.314841
2.37137e+06	0.314909
2.38506e+06	0.314977
2.39883e+06	0.315045
2.41268e+06	0.315114
2.42661e+06	0.315182
2.44062e+06	0.31525
2.45471e+06	0.315318
2.46888e+06	0.315387
2.48313e+06	0.315455
2.49747e+06	0.315523
2.51189e+06	0.315592
2.52639e+06	0.31566
2.54097e+06	0.315728
2.55564e+06	0.315797
2.5704e+06	0.315865
2.58523e+06	0.315933
2.60016e+06	0.316002
2.61517e+06	0.31607
2.63027e+06	0.316139
2.64545e+06	0.316207
2.66073e+06	0.316276
2.67609e+06	0.316344
2.69153e+06	0.316413
2.70707e+06	0.316481
2.7227e+06	0.31655
2.73842e+06	0.316618
2.75423e+06	0.316687
2.77013e+06	0.316755
2.78612e+06	0.316824
2.80221e+06	0.316893
2.81838e+06	0.316961
2.83465e+06	0.31703
2.85102e+06	0.317099
2.86748e+06	0.317167
2.88403e+06	0.317236
2.90068e+06	0.317305
2.91743e+06	0.317373
2.93427e+06	0.317442
2.95121e+06	0.317511
2.96825e+06	0.31758
2.98538e+06	0.317648
3.00262e+06	0.317717
3.01995e+06	0.317786
3.03739e+06	0.317855
3.05492e+06	0.317924
3.07256e+06	0.317993
3.0903e+06	0.318062
3.10814e+06	0.31813
3.12608e+06	0.318199
3.14413e+06	0.318268
3.16228e+06	0.318337
3.18053e+06	0.318406
3.1989e+06	0.318475
3.21736e+06	0.318544
3.23594e+06	0.318613
3.25462e+06	0.318682
3.27341e+06	0.318751
3.2923e+06	0.31882
3.31131e+06	0.318889
3.33043e+06	0.318958
3.34965e+06	0.319028
3.36899e+06	0.319097
3.38844e+06	0.319166
3.408e+06	0.319235
3.42768e+06	0.319304
3.44747e+06	0.319373
3.46737e+06	0.319443
3.48739e+06	0.319512
3.50752e+06	0.319581
3.52777e+06	0.31965
3.54813e+06	0.31972
3.56862e+06	0.319789
3.58922e+06	0.319858
3.60994e+06	0.319927
3.63078e+06	0.319997
3.65174e+06	0.320066
3.67282e+06	0.320135
3.69403e+06	0.320205
3.71535e+06	0.320274
3.7368e+06	0.320344
3.75837e+06	0.320413
3.78007e+06	0.320483
3.80189e+06	0.320552
3.82384e+06	0.320622
3.84592e+06	0.320691
3.86812e+06	0.320761
3.89045e+06	0.32083
3.91291e+06	0.3209
3.9355e+06	0.320969
3.95822e+06	0.321039
3.98107e+06	0.321108
4.00405e+06	0.321178
4.02717e+06	0.321248
4.05042e+06	0.321317
4.0738e+06	0.321387
4.09732e+06	0.321457
4.12098e+06	0.321526
4.14477e+06	0.321596
4.16869e+06	0.321666
4.19276e+06	0.321735
4.21697e+06	0.321805
4.24131e+06	0.321875
4.2658e+06	0.321945
4.29042e+06	0.322015
4.31519e+06	0.322084
4.3401e+06	0.322154
4.36516e+06	0.322224
4.39036e+06	0.322294
4.4157e+06	0.322364
4.4412e+06	0.322434
4.46684e+06	0.322504
4.49262e+06	0.322574
4.51856e+06	0.322644
4.54465e+06	0.322714
4.57088e+06	0.322784
4.59727e+06	0.322854
4.62381e+06	0.322924
4.6505e+06	0.322994
4.67735e+06	0.323064
4.70435e+06	0.323134
4.73151e+06	0.323204
4.75883e+06	0.323274
4.7863e+06	0.323344
4.81393e+06	0.323414
4.84172e+06	0.323485
4.86968e+06	0.323555
4.89779e+06	0.323625
4.92606e+06	0.323695
4.9545e+06	0.323765
4.9831e+06	0.323836
5.01187e+06	0.323906
5.04081e+06	0.323976
5.06991e+06	0.324046
5.09918e+06	0.324117
5.12861e+06	0.324187
5.15822e+06	0.324257
5.188e+06	0.324328
5.21795e+06	0.324398
5.24807e+06	0.324469
5.27837e+06	0.324539
5.30884e+06	0.32461
5.33949e+06	0.32468
5.37032e+06	0.32475
5.40132e+06	0.324821
5.4325e+06	0.324891
5.46387e+06	0.324962
5.49541e+06	0.325033
5.52713e+06	0.325103
5.55904e+06	0.325174
5.59114e+06	0.325244
5.62341e+06	0.325315
5.65588e+06	0.325385
5.68853e+06	0.325456
5.72137e+06	0.325527
5.7544e+06	0.325597
5.78762e+06	0.325668
5.82103e+06	0.325739
5.85464e+06	0.32581
5.88844e+06	0.32588
5.92243e+06	0.325951
5.95662e+06	0.326022
5.99101e+06	0.326093
6.0256e+06	0.326164
6.06038e+06	0.326234
6.09537e+06	0.326305
6.13056e+06	0.326376
6.16595e+06	0.326447
6.20155e+06	0.326518
6.23735e+06	0.326589
6.27336e+06	0.32666
6.30957e+06	0.326731
6.346e+06	0.326802
6.38263e+06	0.326873
6.41948e+06	0.326944
6.45654e+06	0.327015
6.49382e+06	0.327086
6.53131e+06	0.327157
6.56901e+06	0.327228
6.60693e+06	0.327299
6.64508e+06	0.32737
6.68344e+06	0.327441
6.72202e+06	0.327512
6.76083e+06	0.327584
6.79986e+06	0.327655
6.83912e+06	0.327726
6.8786e+06	0.327797
6.91831e+06	0.327869
6.95825e+06	0.32794
6.99842e+06	0.328011
7.03882e+06	0.328082
7.07946e+06	0.328154
7.12033e+06	0.328225
7.16143e+06	0.328296
7.20278e+06	0.328368
7.24436e+06	0.328439
7.28618e+06	0.328511
7.32825e+06	0.328582
7.37055e+06	0.328653
7.4131e+06	0.328725
7.4559e+06	0.328796
7.49894e+06	0.328868
7.54223e+06	0.328939
7.58578e+06	0.329011
7.62957e+06	0.329082
7.67361e+06	0.329154
7.71792e+06	0.329226
7.76247e+06	0.329297
7.80728e+06	0.329369
7.85236e+06	0.32944
7.89769e+06	0.329512
7.94328e+06	0.329584
7.98914e+06	0.329655
8.03526e+06	0.329727
8.08165e+06	0.329799
8.12831e+06	0.329871
8.17523e+06	0.329942
8.22243e+06	0.330014
8.2699e+06	0.330086
8.31764e+06	0.330158
8.36566e+06	0.33023
8.41395e+06	0.330301
8.46253e+06	0.330373
8.51138e+06	0.330445
8.56052e+06	0.330517
8.60994e+06	0.330589
8.65964e+06	0.330661
8.70964e+06	0.330733
8.75992e+06	0.330805
8.81049e+06	0.330877
8.86135e+06	0.330949
8.91251e+06	0.331021
8.96396e+06	0.331093
9.01571e+06	0.331165
9.06776e+06	0.331237
9.12011e+06	0.331309
9.17276e+06	0.331381
9.22571e+06	0.331454
9.27897e+06	0.331526
9.33254e+06	0.331598
9.38642e+06	0.33167
9.44061e+06	0.331742
9.49511e+06	0.331815
9.54993e+06	0.331887
9.60506e+06	0.331959
9.66051e+06	0.332031
9.71628e+06	0.332104
9.77237e+06	0.332176
9.82879e+06	0.332248
9.88553e+06	0.332321
9.9426e+06	0.332393
1e+07	0.332466
