Stopping power dEdx from Ionisation for proton Z = 1 in G4_TISSUE_SOFT_ICRP, process name: hIoni
E [MeV]	dEdx [MeV/mm]
0.001	17.2756
0.00100577	17.3254
0.00101158	17.3754
0.00101742	17.4255
0.00102329	17.4757
0.0010292	17.526
0.00103514	17.5766
0.00104112	17.6272
0.00104713	17.678
0.00105317	17.729
0.00105925	17.7801
0.00106537	17.8313
0.00107152	17.8827
0.00107771	17.9343
0.00108393	17.986
0.00109018	18.0378
0.00109648	18.0898
0.00110281	18.142
0.00110917	18.1942
0.00111558	18.2467
0.00112202	18.2993
0.0011285	18.352
0.00113501	18.4049
0.00114156	18.458
0.00114815	18.5112
0.00115478	18.5645
0.00116145	18.618
0.00116815	18.6717
0.0011749	18.7255
0.00118168	18.7795
0.0011885	18.8336
0.00119536	18.8879
0.00120226	18.9424
0.00120921	18.997
0.00121619	19.0517
0.00122321	19.1066
0.00123027	19.1617
0.00123737	19.2169
0.00124451	19.2723
0.0012517	19.3279
0.00125893	19.3836
0.00126619	19.4395
0.0012735	19.4955
0.00128086	19.5517
0.00128825	19.608
0.00129569	19.6646
0.00130317	19.7212
0.00131069	19.7781
0.00131826	19.8351
0.00132587	19.8923
0.00133352	19.9496
0.00134122	20.0071
0.00134896	20.0648
0.00135675	20.1226
0.00136458	20.1806
0.00137246	20.2388
0.00138038	20.2971
0.00138835	20.3556
0.00139637	20.4143
0.00140443	20.4731
0.00141254	20.5321
0.00142069	20.5913
0.00142889	20.6507
0.00143714	20.7102
0.00144544	20.7699
0.00145378	20.8297
0.00146218	20.8898
0.00147062	20.95
0.00147911	21.0104
0.00148765	21.0709
0.00149624	21.1317
0.00150487	21.1926
0.00151356	21.2537
0.0015223	21.3149
0.00153109	21.3764
0.00153993	21.438
0.00154882	21.4998
0.00155776	21.5618
0.00156675	21.6239
0.0015758	21.6862
0.00158489	21.7487
0.00159404	21.8114
0.00160325	21.8743
0.0016125	21.9373
0.00162181	22.0006
0.00163117	22.064
0.00164059	22.1276
0.00165006	22.1914
0.00165959	22.2553
0.00166917	22.3195
0.0016788	22.3838
0.0016885	22.4483
0.00169824	22.513
0.00170805	22.5779
0.00171791	22.643
0.00172783	22.7083
0.0017378	22.7737
0.00174783	22.8394
0.00175792	22.9052
0.00176807	22.9712
0.00177828	23.0374
0.00178855	23.1038
0.00179887	23.1704
0.00180926	23.2372
0.0018197	23.3042
0.00183021	23.3714
0.00184077	23.4387
0.0018514	23.5063
0.00186209	23.574
0.00187284	23.642
0.00188365	23.7101
0.00189452	23.7785
0.00190546	23.847
0.00191646	23.9158
0.00192752	23.9847
0.00193865	24.0538
0.00194984	24.1232
0.0019611	24.1927
0.00197242	24.2624
0.00198381	24.3323
0.00199526	24.4025
0.00200678	24.4728
0.00201837	24.5434
0.00203002	24.6141
0.00204174	24.6851
0.00205353	24.7562
0.00206538	24.8276
0.0020773	24.8991
0.0020893	24.9709
0.00210136	25.0429
0.00211349	25.115
0.00212569	25.1874
0.00213796	25.26
0.0021503	25.3328
0.00216272	25.4059
0.0021752	25.4791
0.00218776	25.5525
0.00220039	25.6262
0.00221309	25.7001
0.00222587	25.7741
0.00223872	25.8484
0.00225165	25.9229
0.00226464	25.9976
0.00227772	26.0726
0.00229087	26.1477
0.00230409	26.2231
0.00231739	26.2987
0.00233077	26.3745
0.00234423	26.4505
0.00235776	26.5267
0.00237137	26.6032
0.00238506	26.6799
0.00239883	26.7568
0.00241268	26.8339
0.00242661	26.9113
0.00244062	26.9888
0.00245471	27.0666
0.00246888	27.1446
0.00248313	27.2229
0.00249747	27.3013
0.00251189	27.38
0.00252639	27.459
0.00254097	27.5381
0.00255564	27.6175
0.0025704	27.6971
0.00258523	27.7769
0.00260016	27.857
0.00261517	27.9373
0.00263027	28.0178
0.00264545	28.0986
0.00266073	28.1795
0.00267609	28.2608
0.00269153	28.3422
0.00270707	28.4239
0.0027227	28.5059
0.00273842	28.588
0.00275423	28.6704
0.00277013	28.7531
0.00278612	28.8359
0.00280221	28.9191
0.00281838	29.0024
0.00283465	29.086
0.00285102	29.1698
0.00286748	29.2539
0.00288403	29.3382
0.00290068	29.4228
0.00291743	29.5076
0.00293427	29.5927
0.00295121	29.678
0.00296825	29.7635
0.00298538	29.8493
0.00300262	29.9353
0.00301995	30.0216
0.00303739	30.1081
0.00305492	30.1949
0.00307256	30.282
0.0030903	30.3692
0.00310814	30.4568
0.00312608	30.5446
0.00314413	30.6326
0.00316228	30.7209
0.00318053	30.8095
0.0031989	30.8983
0.00321736	30.9873
0.00323594	31.0766
0.00325462	31.1662
0.00327341	31.256
0.0032923	31.3461
0.00331131	31.4365
0.00333043	31.5271
0.00334965	31.618
0.00336899	31.7091
0.00338844	31.8005
0.003408	31.8922
0.00342768	31.9841
0.00344747	32.0763
0.00346737	32.1687
0.00348739	32.2615
0.00350752	32.3545
0.00352777	32.4477
0.00354813	32.5412
0.00356862	32.635
0.00358922	32.7291
0.00360994	32.8234
0.00363078	32.918
0.00365174	33.0129
0.00367282	33.1081
0.00369403	33.2035
0.00371535	33.2992
0.0037368	33.3952
0.00375837	33.4915
0.00378007	33.588
0.00380189	33.6848
0.00382384	33.7819
0.00384592	33.8793
0.00386812	33.9769
0.00389045	34.0749
0.00391291	34.1731
0.0039355	34.2716
0.00395822	34.3704
0.00398107	34.4694
0.00400405	34.5688
0.00402717	34.6684
0.00405042	34.7683
0.0040738	34.8686
0.00409732	34.9691
0.00412098	35.0699
0.00414477	35.1709
0.00416869	35.2723
0.00419276	35.374
0.00421697	35.476
0.00424131	35.5782
0.0042658	35.6808
0.00429042	35.7836
0.00431519	35.8867
0.0043401	35.9902
0.00436516	36.0939
0.00439036	36.198
0.0044157	36.3023
0.0044412	36.4069
0.00446684	36.5119
0.00449262	36.6171
0.00451856	36.7227
0.00454465	36.8285
0.00457088	36.9347
0.00459727	37.0411
0.00462381	37.1479
0.0046505	37.255
0.00467735	37.3623
0.00470435	37.47
0.00473151	37.578
0.00475883	37.6863
0.0047863	37.795
0.00481393	37.9039
0.00484172	38.0132
0.00486968	38.1227
0.00489779	38.2326
0.00492606	38.3428
0.0049545	38.4533
0.0049831	38.5642
0.00501187	38.6753
0.00504081	38.7868
0.00506991	38.8986
0.00509918	39.0107
0.00512861	39.1232
0.00515822	39.2359
0.005188	39.349
0.00521795	39.4624
0.00524807	39.5762
0.00527837	39.6903
0.00530884	39.8047
0.00533949	39.9194
0.00537032	40.0345
0.00540132	40.1499
0.0054325	40.2656
0.00546387	40.3816
0.00549541	40.498
0.00552713	40.6148
0.00555904	40.7318
0.00559114	40.8492
0.00562341	40.967
0.00565588	41.0851
0.00568853	41.2035
0.00572137	41.3223
0.0057544	41.4414
0.00578762	41.5608
0.00582103	41.6806
0.00585464	41.8007
0.00588844	41.9212
0.00592243	42.0421
0.00595662	42.1632
0.00599101	42.2848
0.0060256	42.4067
0.00606038	42.5289
0.00609537	42.6515
0.00613056	42.7744
0.00616595	42.8977
0.00620155	43.0214
0.00623735	43.1454
0.00627336	43.2697
0.00630957	43.3944
0.006346	43.5195
0.00638263	43.645
0.00641948	43.7708
0.00645654	43.8969
0.00649382	44.0234
0.00653131	44.1503
0.00656901	44.2776
0.00660693	44.4052
0.00664508	44.5332
0.00668344	44.6616
0.00672202	44.7903
0.00676083	44.9194
0.00679986	45.0489
0.00683912	45.1787
0.0068786	45.309
0.00691831	45.4396
0.00695825	45.5705
0.00699842	45.7019
0.00703882	45.8336
0.00707946	45.9657
0.00712033	46.0982
0.00716143	46.2311
0.00720278	46.3643
0.00724436	46.498
0.00728618	46.632
0.00732825	46.7664
0.00737055	46.9012
0.0074131	47.0364
0.0074559	47.172
0.00749894	47.3079
0.00754223	47.4443
0.00758578	47.5811
0.00762957	47.7182
0.00767361	47.8557
0.00771792	47.9937
0.00776247	48.132
0.00780728	48.2707
0.00785236	48.4099
0.00789769	48.5494
0.00794328	48.6894
0.00798914	48.8297
0.00803526	48.9704
0.00808165	49.1116
0.00812831	49.2532
0.00817523	49.3951
0.00822243	49.5375
0.0082699	49.6803
0.00831764	49.8235
0.00836566	49.9671
0.00841395	50.1111
0.00846253	50.2556
0.00851138	50.4004
0.00856052	50.5457
0.00860994	50.6914
0.00865964	50.8375
0.00870964	50.984
0.00875992	51.131
0.00881049	51.2783
0.00886135	51.4262
0.00891251	51.5744
0.00896396	51.723
0.00901571	51.8721
0.00906776	52.0216
0.00912011	52.1716
0.00917276	52.322
0.00922571	52.4728
0.00927897	52.624
0.00933254	52.7757
0.00938642	52.9278
0.00944061	53.0804
0.00949511	53.2334
0.00954993	53.3868
0.00960506	53.5407
0.00966051	53.695
0.00971628	53.8498
0.00977237	54.005
0.00982879	54.1607
0.00988553	54.3168
0.0099426	54.4733
0.01	54.6304
0.0100577	54.7878
0.0101158	54.9305
0.0101742	55.0683
0.0102329	55.2062
0.010292	55.3445
0.0103514	55.4831
0.0104112	55.6219
0.0104713	55.761
0.0105317	55.9004
0.0105925	56.0401
0.0106537	56.18
0.0107152	56.3203
0.0107771	56.4608
0.0108393	56.6016
0.0109018	56.7426
0.0109648	56.884
0.0110281	57.0256
0.0110917	57.1675
0.0111558	57.3097
0.0112202	57.4521
0.011285	57.5948
0.0113501	57.7378
0.0114156	57.8811
0.0114815	58.0247
0.0115478	58.1685
0.0116145	58.3126
0.0116815	58.457
0.011749	58.6016
0.0118168	58.7466
0.011885	58.8918
0.0119536	59.0372
0.0120226	59.183
0.0120921	59.329
0.0121619	59.4752
0.0122321	59.6218
0.0123027	59.7686
0.0123737	59.9157
0.0124451	60.063
0.012517	60.2107
0.0125893	60.3585
0.0126619	60.5067
0.012735	60.6551
0.0128086	60.8038
0.0128825	60.9527
0.0129569	61.1019
0.0130317	61.2514
0.0131069	61.4011
0.0131826	61.5511
0.0132587	61.7013
0.0133352	61.8519
0.0134122	62.0026
0.0134896	62.1536
0.0135675	62.3049
0.0136458	62.4564
0.0137246	62.6082
0.0138038	62.7603
0.0138835	62.9126
0.0139637	63.0651
0.0140443	63.2179
0.0141254	63.3709
0.0142069	63.5242
0.0142889	63.6778
0.0143714	63.8315
0.0144544	63.9856
0.0145378	64.1398
0.0146218	64.2944
0.0147062	64.4491
0.0147911	64.6041
0.0148765	64.7594
0.0149624	64.9148
0.0150487	65.0705
0.0151356	65.2265
0.015223	65.3827
0.0153109	65.5391
0.0153993	65.6957
0.0154882	65.8526
0.0155776	66.0097
0.0156675	66.1671
0.015758	66.3246
0.0158489	66.4824
0.0159404	66.6404
0.0160325	66.7986
0.016125	66.9571
0.0162181	67.1157
0.0163117	67.2746
0.0164059	67.4337
0.0165006	67.593
0.0165959	67.7526
0.0166917	67.9123
0.016788	68.0722
0.016885	68.2324
0.0169824	68.3928
0.0170805	68.5533
0.0171791	68.7141
0.0172783	68.875
0.017378	69.0362
0.0174783	69.1975
0.0175792	69.3591
0.0176807	69.5208
0.0177828	69.6828
0.0178855	69.8449
0.0179887	70.0072
0.0180926	70.1697
0.018197	70.3324
0.0183021	70.4952
0.0184077	70.6582
0.018514	70.8214
0.0186209	70.9848
0.0187284	71.1484
0.0188365	71.3121
0.0189452	71.476
0.0190546	71.64
0.0191646	71.8042
0.0192752	71.9686
0.0193865	72.1331
0.0194984	72.2978
0.019611	72.4626
0.0197242	72.6276
0.0198381	72.7927
0.0199526	72.958
0.0200678	73.1234
0.0201837	73.289
0.0203002	73.4547
0.0204174	73.6205
0.0205353	73.7865
0.0206538	73.9525
0.020773	74.1188
0.020893	74.2851
0.0210136	74.4515
0.0211349	74.6181
0.0212569	74.7848
0.0213796	74.9516
0.021503	75.1185
0.0216272	75.2855
0.021752	75.4526
0.0218776	75.6198
0.0220039	75.7871
0.0221309	75.9545
0.0222587	76.122
0.0223872	76.2895
0.0225165	76.4572
0.0226464	76.6249
0.0227772	76.7927
0.0229087	76.9606
0.0230409	77.1285
0.0231739	77.2965
0.0233077	77.4646
0.0234423	77.6327
0.0235776	77.8009
0.0237137	77.9691
0.0238506	78.1374
0.0239883	78.3057
0.0241268	78.474
0.0242661	78.6424
0.0244062	78.8108
0.0245471	78.9793
0.0246888	79.1478
0.0248313	79.3163
0.0249747	79.4848
0.0251189	79.6533
0.0252639	79.8218
0.0254097	79.9903
0.0255564	80.1589
0.025704	80.3274
0.0258523	80.4959
0.0260016	80.6644
0.0261517	80.8329
0.0263027	81.0013
0.0264545	81.1697
0.0266073	81.3381
0.0267609	81.5065
0.0269153	81.6748
0.0270707	81.8431
0.027227	82.0113
0.0273842	82.1795
0.0275423	82.3476
0.0277013	82.5156
0.0278612	82.6836
0.0280221	82.8515
0.0281838	83.0193
0.0283465	83.187
0.0285102	83.3547
0.0286748	83.5222
0.0288403	83.6897
0.0290068	83.857
0.0291743	84.0243
0.0293427	84.1914
0.0295121	84.3584
0.0296825	84.5253
0.0298538	84.692
0.0300262	84.8586
0.0301995	85.0251
0.0303739	85.1914
0.0305492	85.3576
0.0307256	85.5236
0.030903	85.6894
0.0310814	85.8551
0.0312608	86.0206
0.0314413	86.1859
0.0316228	86.351
0.0318053	86.516
0.031989	86.6807
0.0321736	86.8452
0.0323594	87.0095
0.0325462	87.1736
0.0327341	87.3375
0.032923	87.5012
0.0331131	87.6646
0.0333043	87.8278
0.0334965	87.9907
0.0336899	88.1534
0.0338844	88.3158
0.03408	88.478
0.0342768	88.6398
0.0344747	88.8014
0.0346737	88.9628
0.0348739	89.1238
0.0350752	89.2845
0.0352777	89.4449
0.0354813	89.605
0.0356862	89.7648
0.0358922	89.9243
0.0360994	90.0834
0.0363078	90.2422
0.0365174	90.4007
0.0367282	90.5588
0.0369403	90.7165
0.0371535	90.8739
0.037368	91.0309
0.0375837	91.1875
0.0378007	91.3437
0.0380189	91.4996
0.0382384	91.655
0.0384592	91.81
0.0386812	91.9647
0.0389045	92.1189
0.0391291	92.2726
0.039355	92.426
0.0395822	92.5788
0.0398107	92.7313
0.0400405	92.8833
0.0402717	93.0348
0.0405042	93.1688
0.040738	93.3005
0.0409732	93.4316
0.0412098	93.562
0.0414477	93.6916
0.0416869	93.8205
0.0419276	93.9487
0.0421697	94.0761
0.0424131	94.2027
0.042658	94.3286
0.0429042	94.4537
0.0431519	94.578
0.043401	94.7015
0.0436516	94.8242
0.0439036	94.946
0.044157	95.0671
0.044412	95.1873
0.0446684	95.3066
0.0449262	95.4251
0.0451856	95.5427
0.0454465	95.6595
0.0457088	95.7753
0.0459727	95.8903
0.0462381	96.0043
0.046505	96.1174
0.0467735	96.2296
0.0470435	96.3408
0.0473151	96.4511
0.0475883	96.5605
0.047863	96.6688
0.0481393	96.7762
0.0484172	96.8826
0.0486968	96.9879
0.0489779	97.0923
0.0492606	97.1956
0.049545	97.2979
0.049831	97.3992
0.0501187	97.4994
0.0504081	97.5985
0.0506991	97.6966
0.0509918	97.7936
0.0512861	97.8894
0.0515822	97.9842
0.05188	98.0779
0.0521795	98.1704
0.0524807	98.2618
0.0527837	98.352
0.0530884	98.4411
0.0533949	98.529
0.0537032	98.6157
0.0540132	98.7013
0.054325	98.7856
0.0546387	98.8687
0.0549541	98.9506
0.0552713	99.0313
0.0555904	99.1107
0.0559114	99.1889
0.0562341	99.2658
0.0565588	99.3415
0.0568853	99.4159
0.0572137	99.4889
0.057544	99.5607
0.0578762	99.6312
0.0582103	99.7003
0.0585464	99.7681
0.0588844	99.8345
0.0592243	99.8997
0.0595662	99.9634
0.0599101	100.026
0.060256	100.087
0.0606038	100.146
0.0609537	100.205
0.0613056	100.261
0.0616595	100.317
0.0620155	100.371
0.0623735	100.423
0.0627336	100.474
0.0630957	100.524
0.06346	100.572
0.0638263	100.619
0.0641948	100.664
0.0645654	100.707
0.0649382	100.75
0.0653131	100.79
0.0656901	100.829
0.0660693	100.867
0.0664508	100.903
0.0668344	100.937
0.0672202	100.97
0.0676083	101.002
0.0679986	101.032
0.0683912	101.06
0.068786	101.087
0.0691831	101.112
0.0695825	101.135
0.0699842	101.157
0.0703882	101.177
0.0707946	101.196
0.0712033	101.213
0.0716143	101.228
0.0720278	101.242
0.0724436	101.254
0.0728618	101.264
0.0732825	101.273
0.0737055	101.279
0.074131	101.285
0.074559	101.288
0.0749894	101.29
0.0754223	101.29
0.0758578	101.289
0.0762957	101.286
0.0767361	101.281
0.0771792	101.274
0.0776247	101.266
0.0780728	101.256
0.0785236	101.244
0.0789769	101.23
0.0794328	101.215
0.0798914	101.197
0.0803526	101.178
0.0808165	101.158
0.0812831	101.135
0.0817523	101.111
0.0822243	101.085
0.082699	101.057
0.0831764	101.027
0.0836566	100.996
0.0841395	100.963
0.0846253	100.928
0.0851138	100.891
0.0856052	100.852
0.0860994	100.812
0.0865964	100.77
0.0870964	100.726
0.0875992	100.68
0.0881049	100.632
0.0886135	100.582
0.0891251	100.531
0.0896396	100.478
0.0901571	100.423
0.0906776	100.366
0.0912011	100.307
0.0917276	100.247
0.0922571	100.185
0.0927897	100.12
0.0933254	100.054
0.0938642	99.9867
0.0944061	99.917
0.0949511	99.8455
0.0954993	99.7722
0.0960506	99.6971
0.0966051	99.6201
0.0971628	99.5413
0.0977237	99.4607
0.0982879	99.3783
0.0988553	99.294
0.099426	99.2079
0.1	99.12
0.100577	99.0303
0.101158	98.9387
0.101742	98.8454
0.102329	98.7502
0.10292	98.6533
0.103514	98.5545
0.104112	98.454
0.104713	98.3516
0.105317	98.2475
0.105925	98.1416
0.106537	98.0339
0.107152	97.9244
0.107771	97.8132
0.108393	97.7001
0.109018	97.5854
0.109648	97.4689
0.110281	97.3506
0.110917	97.2306
0.111558	97.1088
0.112202	96.9853
0.11285	96.8601
0.113501	96.7332
0.114156	96.6046
0.114815	96.4743
0.115478	96.3422
0.116145	96.2085
0.116815	96.0732
0.11749	95.9361
0.118168	95.7974
0.11885	95.657
0.119536	95.515
0.120226	95.3713
0.120921	95.2261
0.121619	95.0792
0.122321	94.9307
0.123027	94.7806
0.123737	94.6289
0.124451	94.4756
0.12517	94.3208
0.125893	94.1644
0.126619	94.0064
0.12735	93.847
0.128086	93.686
0.128825	93.5235
0.129569	93.3594
0.130317	93.1939
0.131069	93.027
0.131826	92.8585
0.132587	92.6886
0.133352	92.5173
0.134122	92.3445
0.134896	92.1703
0.135675	91.9947
0.136458	91.8178
0.137246	91.6394
0.138038	91.4597
0.138835	91.2786
0.139637	91.0962
0.140443	90.9125
0.141254	90.7274
0.142069	90.5411
0.142889	90.3535
0.143714	90.1646
0.144544	89.9745
0.145378	89.7831
0.146218	89.5905
0.147062	89.3967
0.147911	89.2017
0.148765	89.0056
0.149624	88.8082
0.150487	88.6098
0.151356	88.4102
0.15223	88.2094
0.153109	88.0076
0.153993	87.8047
0.154882	87.6007
0.155776	87.3957
0.156675	87.1896
0.15758	86.9825
0.158489	86.7745
0.159404	86.5654
0.160325	86.3553
0.16125	86.1443
0.162181	85.9324
0.163117	85.7195
0.164059	85.5058
0.165006	85.2911
0.165959	85.0756
0.166917	84.8592
0.16788	84.642
0.16885	84.4239
0.169824	84.2051
0.170805	83.9854
0.171791	83.765
0.172783	83.5439
0.17378	83.322
0.174783	83.0994
0.175792	82.876
0.176807	82.652
0.177828	82.4274
0.178855	82.202
0.179887	81.9761
0.180926	81.7495
0.18197	81.5223
0.183021	81.2946
0.184077	81.0663
0.18514	80.8374
0.186209	80.608
0.187284	80.3781
0.188365	80.1476
0.189452	79.9167
0.190546	79.6854
0.191646	79.4536
0.192752	79.2213
0.193865	78.9887
0.194984	78.7556
0.19611	78.5222
0.197242	78.2884
0.198381	78.0542
0.199526	77.8197
0.200678	77.5849
0.201837	77.3498
0.203002	77.1144
0.204174	76.8788
0.205353	76.6429
0.206538	76.4068
0.20773	76.1704
0.20893	75.9339
0.210136	75.6971
0.211349	75.4602
0.212569	75.2231
0.213796	74.9859
0.21503	74.7486
0.216272	74.5111
0.21752	74.2736
0.218776	74.0359
0.220039	73.7982
0.221309	73.5605
0.222587	73.3227
0.223872	73.0849
0.225165	72.8471
0.226464	72.6093
0.227772	72.3715
0.229087	72.1337
0.230409	71.896
0.231739	71.6583
0.233077	71.4208
0.234423	71.1833
0.235776	70.9459
0.237137	70.7086
0.238506	70.4715
0.239883	70.2345
0.241268	69.9976
0.242661	69.7609
0.244062	69.5244
0.245471	69.2881
0.246888	69.052
0.248313	68.816
0.249747	68.5804
0.251189	68.3449
0.252639	68.1097
0.254097	67.8748
0.255564	67.6401
0.25704	67.4057
0.258523	67.1716
0.260016	66.9378
0.261517	66.7043
0.263027	66.4712
0.264545	66.2384
0.266073	66.0059
0.267609	65.7737
0.269153	65.542
0.270707	65.3106
0.27227	65.0796
0.273842	64.8489
0.275423	64.6187
0.277013	64.3889
0.278612	64.1595
0.280221	63.9305
0.281838	63.702
0.283465	63.4739
0.285102	63.2462
0.286748	63.019
0.288403	62.7923
0.290068	62.5661
0.291743	62.3403
0.293427	62.115
0.295121	61.8902
0.296825	61.6659
0.298538	61.4421
0.300262	61.2189
0.301995	60.9961
0.303739	60.7739
0.305492	60.5522
0.307256	60.331
0.30903	60.1104
0.310814	59.8904
0.312608	59.6709
0.314413	59.4519
0.316228	59.2335
0.318053	59.0157
0.31989	58.7985
0.321736	58.5818
0.323594	58.3658
0.325462	58.1503
0.327341	57.9354
0.32923	57.7211
0.331131	57.5074
0.333043	57.2943
0.334965	57.0819
0.336899	56.87
0.338844	56.6588
0.3408	56.4481
0.342768	56.2381
0.344747	56.0287
0.346737	55.82
0.348739	55.6119
0.350752	55.4044
0.352777	55.1975
0.354813	54.9913
0.356862	54.7857
0.358922	54.5808
0.360994	54.3765
0.363078	54.1729
0.365174	53.9699
0.367282	53.7675
0.369403	53.5659
0.371535	53.3648
0.37368	53.1644
0.375837	52.9647
0.378007	52.7656
0.380189	52.5672
0.382384	52.3695
0.384592	52.1724
0.386812	51.9759
0.389045	51.7802
0.391291	51.5851
0.39355	51.3906
0.395822	51.1968
0.398107	51.0037
0.400405	50.8112
0.402717	50.6194
0.405042	50.4283
0.40738	50.2378
0.409732	50.048
0.412098	49.8589
0.414477	49.6704
0.416869	49.4826
0.419276	49.2954
0.421697	49.1089
0.424131	48.9231
0.42658	48.7379
0.429042	48.5534
0.431519	48.3695
0.43401	48.1863
0.436516	48.0037
0.439036	47.8218
0.44157	47.6406
0.44412	47.46
0.446684	47.2801
0.449262	47.1008
0.451856	46.9222
0.454465	46.7442
0.457088	46.5669
0.459727	46.3902
0.462381	46.2141
0.46505	46.0387
0.467735	45.8639
0.470435	45.6898
0.473151	45.5163
0.475883	45.3435
0.47863	45.1713
0.481393	44.9997
0.484172	44.8287
0.486968	44.6584
0.489779	44.4887
0.492606	44.3197
0.49545	44.1512
0.49831	43.9834
0.501187	43.8162
0.504081	43.6496
0.506991	43.4836
0.509918	43.3183
0.512861	43.1536
0.515822	42.9894
0.5188	42.8259
0.521795	42.663
0.524807	42.5007
0.527837	42.3389
0.530884	42.1778
0.533949	42.0173
0.537032	41.8574
0.540132	41.6981
0.54325	41.5393
0.546387	41.3812
0.549541	41.2236
0.552713	41.0666
0.555904	40.9102
0.559114	40.7544
0.562341	40.5991
0.565588	40.4444
0.568853	40.2903
0.572137	40.1368
0.57544	39.9838
0.578762	39.8314
0.582103	39.6796
0.585464	39.5283
0.588844	39.3776
0.592243	39.2274
0.595662	39.0778
0.599101	38.9287
0.60256	38.7802
0.606038	38.6322
0.609537	38.4848
0.613056	38.3379
0.616595	38.1916
0.620155	38.0457
0.623735	37.9005
0.627336	37.7557
0.630957	37.6115
0.6346	37.4678
0.638263	37.3246
0.641948	37.182
0.645654	37.0399
0.649382	36.8982
0.653131	36.7571
0.656901	36.6166
0.660693	36.4765
0.664508	36.3369
0.668344	36.1979
0.672202	36.0593
0.676083	35.9213
0.679986	35.7837
0.683912	35.6467
0.68786	35.5101
0.691831	35.374
0.695825	35.2385
0.699842	35.1034
0.703882	34.9688
0.707946	34.8346
0.712033	34.701
0.716143	34.5678
0.720278	34.4352
0.724436	34.3029
0.728618	34.1712
0.732825	34.0399
0.737055	33.9092
0.74131	33.7788
0.74559	33.649
0.749894	33.5196
0.754223	33.3906
0.758578	33.2621
0.762957	33.1341
0.767361	33.0065
0.771792	32.8794
0.776247	32.7527
0.780728	32.6265
0.785236	32.5007
0.789769	32.3754
0.794328	32.2505
0.798914	32.1261
0.803526	32.002
0.808165	31.8785
0.812831	31.7553
0.817523	31.6326
0.822243	31.5103
0.82699	31.3885
0.831764	31.2671
0.836566	31.1461
0.841395	31.0255
0.846253	30.9054
0.851138	30.7856
0.856052	30.6663
0.860994	30.5474
0.865964	30.429
0.870964	30.3109
0.875992	30.1932
0.881049	30.076
0.886135	29.9592
0.891251	29.8427
0.896396	29.7267
0.901571	29.6111
0.906776	29.4959
0.912011	29.381
0.917276	29.2666
0.922571	29.1526
0.927897	29.039
0.933254	28.9257
0.938642	28.8129
0.944061	28.7004
0.949511	28.5884
0.954993	28.4767
0.960506	28.3654
0.966051	28.2545
0.971628	28.1439
0.977237	28.0338
0.982879	27.924
0.988553	27.8147
0.99426	27.7056
1	27.597
1.00577	27.4888
1.01158	27.3809
1.01742	27.2734
1.02329	27.1662
1.0292	27.0594
1.03514	26.953
1.04112	26.847
1.04713	26.7413
1.05317	26.636
1.05925	26.531
1.06537	26.4265
1.07152	26.3222
1.07771	26.2183
1.08393	26.1148
1.09018	26.0117
1.09648	25.9089
1.10281	25.8064
1.10917	25.7043
1.11558	25.6026
1.12202	25.5012
1.1285	25.4001
1.13501	25.2994
1.14156	25.199
1.14815	25.099
1.15478	24.9994
1.16145	24.9
1.16815	24.801
1.1749	24.7024
1.18168	24.6041
1.1885	24.5061
1.19536	24.4085
1.20226	24.3112
1.20921	24.2142
1.21619	24.1176
1.22321	24.0213
1.23027	23.9253
1.23737	23.8297
1.24451	23.7344
1.2517	23.6394
1.25893	23.5448
1.26619	23.4505
1.2735	23.3565
1.28086	23.2628
1.28825	23.1694
1.29569	23.0764
1.30317	22.9837
1.31069	22.8913
1.31826	22.7992
1.32587	22.7075
1.33352	22.6161
1.34122	22.5249
1.34896	22.4341
1.35675	22.3437
1.36458	22.2535
1.37246	22.1636
1.38038	22.0741
1.38835	21.9848
1.39637	21.8959
1.40443	21.8073
1.41254	21.719
1.42069	21.631
1.42889	21.5433
1.43714	21.4559
1.44544	21.3688
1.45378	21.282
1.46218	21.1955
1.47062	21.1093
1.47911	21.0234
1.48765	20.9378
1.49624	20.8526
1.50487	20.7676
1.51356	20.6829
1.5223	20.5985
1.53109	20.5144
1.53993	20.4306
1.54882	20.3471
1.55776	20.2639
1.56675	20.1809
1.5758	20.0983
1.58489	20.016
1.59404	19.9339
1.60325	19.8521
1.6125	19.7707
1.62181	19.6895
1.63117	19.6086
1.64059	19.528
1.65006	19.4476
1.65959	19.3676
1.66917	19.2878
1.6788	19.2083
1.6885	19.1291
1.69824	19.0502
1.70805	18.9716
1.71791	18.8932
1.72783	18.8151
1.7378	18.7373
1.74783	18.6598
1.75792	18.5825
1.76807	18.5056
1.77828	18.4289
1.78855	18.3524
1.79887	18.2763
1.80926	18.2004
1.8197	18.1248
1.83021	18.0494
1.84077	17.9744
1.8514	17.8996
1.86209	17.825
1.87284	17.7508
1.88365	17.6768
1.89452	17.603
1.90546	17.5296
1.91646	17.4564
1.92752	17.3834
1.93865	17.3108
1.94984	17.2384
1.9611	17.1662
1.97242	17.0943
1.98381	17.0227
1.99526	16.9513
2.00678	16.8782
2.01837	16.804
2.03002	16.7301
2.04174	16.6564
2.05353	16.5831
2.06538	16.5101
2.0773	16.4374
2.0893	16.3659
2.10136	16.2938
2.11349	16.222
2.12569	16.1505
2.13796	16.0792
2.1503	16.0083
2.16272	15.9376
2.1752	15.8673
2.18776	15.7972
2.20039	15.7274
2.21309	15.6579
2.22587	15.5887
2.23872	15.5218
2.25165	15.4538
2.26464	15.3854
2.27772	15.3174
2.29087	15.2496
2.30409	15.182
2.31739	15.1148
2.33077	15.0478
2.34423	14.9811
2.35776	14.9148
2.37137	14.8486
2.38506	14.7828
2.39883	14.7172
2.41268	14.6519
2.42661	14.5868
2.44062	14.522
2.45471	14.466
2.46888	14.4017
2.48313	14.3376
2.49747	14.2738
2.51189	14.1819
2.52639	14.1182
2.54097	14.0573
2.55564	13.9942
2.5704	13.9313
2.58523	13.8687
2.60016	13.8064
2.61517	13.7444
2.63027	13.6826
2.64545	13.6211
2.66073	13.5599
2.67609	13.4989
2.69153	13.4382
2.70707	13.3777
2.7227	13.3175
2.73842	13.2575
2.75423	13.1978
2.77013	13.1383
2.78612	13.0791
2.80221	13.0201
2.81838	12.9614
2.83465	12.903
2.85102	12.8447
2.86748	12.7868
2.88403	12.729
2.90068	12.6715
2.91743	12.6143
2.93427	12.5573
2.95121	12.5005
2.96825	12.444
2.98538	12.3955
3.00262	12.3394
3.01995	12.2836
3.03739	12.2279
3.05492	12.1726
3.07256	12.1174
3.0903	12.0625
3.10814	12.0078
3.12608	11.9534
3.14413	11.8991
3.16228	11.8452
3.18053	11.7914
3.1989	11.7379
3.21736	11.6846
3.23594	11.6315
3.25462	11.5786
3.27341	11.526
3.2923	11.4736
3.31131	11.4215
3.33043	11.3695
3.34965	11.3178
3.36899	11.2663
3.38844	11.2155
3.408	11.1644
3.42768	11.1136
3.44747	11.0629
3.46737	11.0125
3.48739	10.9623
3.50752	10.9123
3.52777	10.8633
3.54813	10.8149
3.56862	10.7667
3.58922	10.7186
3.60994	10.6708
3.63078	10.6231
3.65174	10.5756
3.67282	10.5284
3.69403	10.4813
3.71535	10.4344
3.7368	10.3877
3.75837	10.3412
3.78007	10.2948
3.80189	10.2487
3.82384	10.2028
3.84592	10.157
3.86812	10.1114
3.89045	10.0661
3.91291	10.0209
3.9355	9.97587
3.95822	9.93105
3.98107	9.88641
4.00405	9.84196
4.02717	9.79769
4.05042	9.75361
4.0738	9.70971
4.09732	9.66866
4.12098	9.62507
4.14477	9.58167
4.16869	9.53845
4.19276	9.49541
4.21697	9.45254
4.24131	9.40987
4.2658	9.36736
4.29042	9.32503
4.31519	9.28288
4.3401	9.24091
4.36516	9.19911
4.39036	9.15748
4.4157	9.11604
4.4412	9.07477
4.46684	9.03368
4.49262	8.99886
4.51856	8.95803
4.54465	8.91739
4.57088	8.87691
4.59727	8.83661
4.62381	8.79648
4.6505	8.75651
4.67735	8.71672
4.70435	8.6771
4.73151	8.63765
4.75883	8.59836
4.7863	8.55925
4.81393	8.5203
4.84172	8.48152
4.86968	8.4429
4.89779	8.40445
4.92606	8.36617
4.9545	8.32805
4.9831	8.29009
5.01187	8.2523
5.04081	8.21468
5.06991	8.17721
5.09918	8.1399
5.12861	8.10275
5.15822	8.06577
5.188	8.02894
5.21795	7.99227
5.24807	7.95576
5.27837	7.91941
5.30884	7.88322
5.33949	7.84719
5.37032	7.81131
5.40132	7.77558
5.4325	7.74001
5.46387	7.7046
5.49541	7.66934
5.52713	7.63423
5.55904	7.59928
5.59114	7.56448
5.62341	7.52983
5.65588	7.49533
5.68853	7.46113
5.72137	7.42692
5.7544	7.39445
5.78762	7.36053
5.82103	7.32675
5.85464	7.29312
5.88844	7.25963
5.92243	7.22628
5.95662	7.19309
5.99101	7.16004
6.0256	7.12715
6.06038	7.09439
6.09537	7.06177
6.13056	7.0293
6.16595	6.99698
6.20155	6.96479
6.23735	6.93275
6.27336	6.90085
6.30957	6.86908
6.346	6.83746
6.38263	6.80598
6.41948	6.77463
6.45654	6.74343
6.49382	6.71236
6.53131	6.68143
6.56901	6.65064
6.60693	6.61998
6.64508	6.58946
6.68344	6.55908
6.72202	6.52883
6.76083	6.49871
6.79986	6.46873
6.83912	6.43888
6.8786	6.40916
6.91831	6.37957
6.95825	6.35012
6.99842	6.32079
7.03882	6.2916
7.07946	6.26254
7.12033	6.23361
7.16143	6.20481
7.20278	6.17613
7.24436	6.14758
7.28618	6.11916
7.32825	6.09086
7.37055	6.0627
7.4131	6.03465
7.4559	6.00674
7.49894	5.98089
7.54223	5.95319
7.58578	5.92561
7.62957	5.89815
7.67361	5.87082
7.71792	5.84361
7.76247	5.81652
7.80728	5.78955
7.85236	5.7627
7.89769	5.73598
7.94328	5.70937
7.98914	5.68297
8.03526	5.6566
8.08165	5.63035
8.12831	5.60422
8.17523	5.57821
8.22243	5.55231
8.2699	5.52653
8.31764	5.50087
8.36566	5.47533
8.41395	5.4499
8.46253	5.42459
8.51138	5.39939
8.56052	5.3743
8.60994	5.34933
8.65964	5.32447
8.70964	5.29972
8.75992	5.27508
8.81049	5.25056
8.86135	5.22614
8.91251	5.20184
8.96396	5.17764
9.01571	5.15356
9.06776	5.12958
9.12011	5.10571
9.17276	5.08195
9.22571	5.05829
9.27897	5.03475
9.33254	5.01131
9.38642	4.98797
9.44061	4.96475
9.49511	4.94162
9.54993	4.91861
9.60506	4.89569
9.66051	4.87288
9.71628	4.85018
9.77237	4.82757
9.82879	4.80507
9.88553	4.78267
9.9426	4.76038
10	4.73818
10.0577	4.71609
10.1158	4.69409
10.1742	4.6722
10.2329	4.65041
10.292	4.62871
10.3514	4.60712
10.4112	4.58562
10.4713	4.56422
10.5317	4.54292
10.5925	4.52285
10.6537	4.50173
10.7152	4.4807
10.7771	4.45977
10.8393	4.43893
10.9018	4.41819
10.9648	4.39754
11.0281	4.37699
11.0917	4.35653
11.1558	4.33616
11.2202	4.31589
11.285	4.29571
11.3501	4.27563
11.4156	4.25563
11.4815	4.23573
11.5478	4.21592
11.6145	4.1962
11.6815	4.17657
11.749	4.15703
11.8168	4.13758
11.885	4.11822
11.9536	4.09895
12.0226	4.07977
12.0921	4.06067
12.1619	4.04167
12.2321	4.02275
12.3027	4.00392
12.3737	3.98517
12.4451	3.96651
12.517	3.94794
12.5893	3.92946
12.6619	3.91106
12.735	3.89274
12.8086	3.87451
12.8825	3.85636
12.9569	3.8383
13.0317	3.82032
13.1069	3.80242
13.1826	3.7846
13.2587	3.76687
13.3352	3.74922
13.4122	3.73165
13.4896	3.71417
13.5675	3.69676
13.6458	3.67943
13.7246	3.66219
13.8038	3.64502
13.8835	3.62794
13.9637	3.61093
14.0443	3.594
14.1254	3.57716
14.2069	3.56039
14.2889	3.54369
14.3714	3.52708
14.4544	3.51054
14.5378	3.49408
14.6218	3.47769
14.7062	3.46139
14.7911	3.44515
14.8765	3.429
14.9624	3.41292
15.0487	3.39691
15.1356	3.38097
15.223	3.36512
15.3109	3.34934
15.3993	3.33363
15.4882	3.318
15.5776	3.30244
15.6675	3.28695
15.758	3.27153
15.8489	3.25619
15.9404	3.24092
16.0325	3.22572
16.125	3.21059
16.2181	3.19553
16.3117	3.18054
16.4059	3.16562
16.5006	3.15077
16.5959	3.13599
16.6917	3.12128
16.788	3.10664
16.885	3.09206
16.9824	3.07756
17.0805	3.06312
17.1791	3.04875
17.2783	3.03445
17.378	3.02021
17.4783	3.00604
17.5792	2.99194
17.6807	2.9779
17.7828	2.96393
17.8855	2.95002
17.9887	2.93618
18.0926	2.92241
18.197	2.90869
18.3021	2.89505
18.4077	2.88146
18.514	2.86795
18.6209	2.85449
18.7284	2.8411
18.8365	2.82777
18.9452	2.8145
19.0546	2.8013
19.1646	2.78816
19.2752	2.77507
19.3865	2.76206
19.4984	2.7491
19.611	2.7362
19.7242	2.72336
19.8381	2.71059
19.9526	2.69787
20.0678	2.68522
20.1837	2.67262
20.3002	2.66009
20.4174	2.64761
20.5353	2.63519
20.6538	2.62283
20.773	2.61053
20.893	2.59828
21.0136	2.5861
21.1349	2.57397
21.2569	2.5619
21.3796	2.54989
21.503	2.53793
21.6272	2.52603
21.752	2.51419
21.8776	2.5024
22.0039	2.49067
22.1309	2.47899
22.2587	2.46737
22.3872	2.4558
22.5165	2.44429
22.6464	2.43283
22.7772	2.42143
22.9087	2.41008
23.0409	2.39879
23.1739	2.38755
23.3077	2.37636
23.4423	2.36522
23.5776	2.35414
23.7137	2.34311
23.8506	2.33214
23.9883	2.32121
24.1268	2.31034
24.2661	2.29952
24.4062	2.28875
24.5471	2.27803
24.6888	2.26736
24.8313	2.25675
24.9747	2.24618
25.1189	2.23566
25.2639	2.2252
25.4097	2.21478
25.5564	2.20442
25.704	2.1941
25.8523	2.18383
26.0016	2.17361
26.1517	2.16344
26.3027	2.15332
26.4545	2.14325
26.6073	2.13322
26.7609	2.12325
26.9153	2.11332
27.0707	2.10344
27.227	2.0936
27.3842	2.08381
27.5423	2.07407
27.7013	2.06438
27.8612	2.05473
28.0221	2.04513
28.1838	2.03558
28.3465	2.02607
28.5102	2.0166
28.6748	2.00718
28.8403	1.99781
29.0068	1.98848
29.1743	1.9792
29.3427	1.96996
29.5121	1.96076
29.6825	1.95161
29.8538	1.9425
30.0262	1.93344
30.1995	1.92442
30.3739	1.91544
30.5492	1.90651
30.7256	1.89762
30.903	1.88877
31.0814	1.87996
31.2608	1.8712
31.4413	1.86248
31.6228	1.8538
31.8053	1.84516
31.989	1.83657
32.1736	1.82801
32.3594	1.8195
32.5462	1.81103
32.7341	1.8026
32.923	1.79421
33.1131	1.78586
33.3043	1.77755
33.4965	1.76928
33.6899	1.76105
33.8844	1.75286
34.08	1.74471
34.2768	1.7366
34.4747	1.72852
34.6737	1.72049
34.8739	1.7125
35.0752	1.70454
35.2777	1.69663
35.4813	1.68875
35.6862	1.68091
35.8922	1.6731
36.0994	1.66534
36.3078	1.65761
36.5174	1.64992
36.7282	1.64227
36.9403	1.63465
37.1535	1.62707
37.368	1.61953
37.5837	1.61203
37.8007	1.60456
38.0189	1.59712
38.2384	1.58973
38.4592	1.58237
38.6812	1.57504
38.9045	1.56775
39.1291	1.5605
39.355	1.55328
39.5822	1.54609
39.8107	1.53895
40.0405	1.53183
40.2717	1.52475
40.5042	1.51771
40.738	1.5107
40.9732	1.50372
41.2098	1.49678
41.4477	1.48987
41.6869	1.48299
41.9276	1.47615
42.1697	1.46934
42.4131	1.46256
42.658	1.45582
42.9042	1.44911
43.1519	1.44244
43.401	1.43579
43.6516	1.42918
43.9036	1.4226
44.157	1.41605
44.412	1.40954
44.6684	1.40305
44.9262	1.3966
45.1856	1.39018
45.4465	1.38379
45.7088	1.37744
45.9727	1.37111
46.2381	1.36481
46.505	1.35855
46.7735	1.35231
47.0435	1.34611
47.3151	1.33994
47.5883	1.33379
47.863	1.32768
48.1393	1.3216
48.4172	1.31555
48.6968	1.30952
48.9779	1.30353
49.2606	1.29756
49.545	1.29163
49.831	1.28572
50.1187	1.27984
50.4081	1.274
50.6991	1.26818
50.9918	1.26239
51.2861	1.25662
51.5822	1.25089
51.88	1.24518
52.1795	1.2395
52.4807	1.23385
52.7837	1.22823
53.0884	1.22264
53.3949	1.21707
53.7032	1.21153
54.0132	1.20602
54.325	1.20053
54.6387	1.19508
54.9541	1.18964
55.2713	1.18424
55.5904	1.17886
55.9114	1.17351
56.2341	1.16819
56.5588	1.16289
56.8853	1.15762
57.2137	1.15237
57.544	1.14715
57.8762	1.14195
58.2103	1.13679
58.5464	1.13164
58.8844	1.12652
59.2243	1.12143
59.5662	1.11636
59.9101	1.11132
60.256	1.1063
60.6038	1.10131
60.9537	1.09634
61.3056	1.0914
61.6595	1.08648
62.0155	1.08159
62.3735	1.07672
62.7336	1.07187
63.0957	1.06705
63.46	1.06225
63.8263	1.05748
64.1948	1.05273
64.5654	1.048
64.9382	1.0433
65.3131	1.03862
65.6901	1.03396
66.0693	1.02933
66.4508	1.02472
66.8344	1.02013
67.2202	1.01557
67.6083	1.01102
67.9986	1.00651
68.3912	1.00201
68.786	0.997534
69.1831	0.993082
69.5825	0.988653
69.9842	0.984245
70.3882	0.979859
70.7946	0.975495
71.2033	0.971153
71.6143	0.966833
72.0278	0.962534
72.4436	0.958257
72.8618	0.954001
73.2825	0.949766
73.7055	0.945553
74.131	0.94136
74.559	0.937189
74.9894	0.933038
75.4223	0.928908
75.8578	0.924799
76.2957	0.920711
76.7361	0.916643
77.1792	0.912595
77.6247	0.908568
78.0728	0.904561
78.5236	0.900573
78.9769	0.896606
79.4328	0.892659
79.8914	0.888732
80.3526	0.884824
80.8165	0.880937
81.2831	0.877068
81.7523	0.873219
82.2243	0.86939
82.699	0.865579
83.1764	0.861788
83.6566	0.858016
84.1395	0.854263
84.6253	0.850529
85.1138	0.846813
85.6052	0.843117
86.0994	0.839439
86.5964	0.835779
87.0964	0.832138
87.5992	0.828516
88.1049	0.824911
88.6135	0.821325
89.1251	0.817757
89.6396	0.814207
90.1571	0.810675
90.6776	0.807161
91.2011	0.803664
91.7276	0.800186
92.2571	0.796725
92.7897	0.793281
93.3254	0.789855
93.8642	0.786446
94.4061	0.783055
94.9511	0.77968
95.4993	0.776323
96.0506	0.772983
96.6051	0.76966
97.1628	0.766353
97.7237	0.763064
98.2879	0.759791
98.8553	0.756535
99.426	0.753295
100	0.750072
100.577	0.746865
101.158	0.743674
101.742	0.7405
102.329	0.737342
102.92	0.7342
103.514	0.731074
104.112	0.727964
104.713	0.72487
105.317	0.721792
105.925	0.718729
106.537	0.715682
107.152	0.71265
107.771	0.709634
108.393	0.706634
109.018	0.703649
109.648	0.700679
110.281	0.697724
110.917	0.694784
111.558	0.691859
112.202	0.68895
112.85	0.686055
113.501	0.683175
114.156	0.68031
114.815	0.67746
115.478	0.674624
116.145	0.671803
116.815	0.668996
117.49	0.666204
118.168	0.663426
118.85	0.660662
119.536	0.657913
120.226	0.655177
120.921	0.652456
121.619	0.649749
122.321	0.647056
123.027	0.644376
123.737	0.641711
124.451	0.639059
125.17	0.636421
125.893	0.633796
126.619	0.631185
127.35	0.628588
128.086	0.626004
128.825	0.623433
129.569	0.620876
130.317	0.618331
131.069	0.6158
131.826	0.613283
132.587	0.610778
133.352	0.608286
134.122	0.605807
134.896	0.603341
135.675	0.600888
136.458	0.598447
137.246	0.59602
138.038	0.593604
138.835	0.591202
139.637	0.588812
140.443	0.586434
141.254	0.584069
142.069	0.581716
142.889	0.579375
143.714	0.577046
144.544	0.57473
145.378	0.572426
146.218	0.570134
147.062	0.567853
147.911	0.565585
148.765	0.563329
149.624	0.561084
150.487	0.558851
151.356	0.55663
152.23	0.55442
153.109	0.552222
153.993	0.550036
154.882	0.547861
155.776	0.545697
156.675	0.543545
157.58	0.541404
158.489	0.539274
159.404	0.537156
160.325	0.535049
161.25	0.532952
162.181	0.530867
163.117	0.528793
164.059	0.52673
165.006	0.524678
165.959	0.522636
166.917	0.520605
167.88	0.518585
168.85	0.516576
169.824	0.514578
170.805	0.512589
171.791	0.510612
172.783	0.508645
173.78	0.506688
174.783	0.504742
175.792	0.502806
176.807	0.50088
177.828	0.498965
178.855	0.49706
179.887	0.495165
180.926	0.49328
181.97	0.491405
183.021	0.48954
184.077	0.487685
185.14	0.48584
186.209	0.484005
187.284	0.482179
188.365	0.480364
189.452	0.478558
190.546	0.476761
191.646	0.474975
192.752	0.473198
193.865	0.47143
194.984	0.469672
196.11	0.467923
197.242	0.466184
198.381	0.464454
199.526	0.462734
200.678	0.461022
201.837	0.45932
203.002	0.457627
204.174	0.455943
205.353	0.454269
206.538	0.452603
207.73	0.450946
208.93	0.449299
210.136	0.44766
211.349	0.44603
212.569	0.444409
213.796	0.442797
215.03	0.441193
216.272	0.439598
217.52	0.438012
218.776	0.436435
220.039	0.434866
221.309	0.433305
222.587	0.431754
223.872	0.43021
225.165	0.428675
226.464	0.427149
227.772	0.42563
229.087	0.42412
230.409	0.422619
231.739	0.421125
233.077	0.41964
234.423	0.418163
235.776	0.416694
237.137	0.415233
238.506	0.41378
239.883	0.412335
241.268	0.410898
242.661	0.409469
244.062	0.408048
245.471	0.406635
246.888	0.405229
248.313	0.403831
249.747	0.402442
251.189	0.401059
252.639	0.399685
254.097	0.398318
255.564	0.396958
257.04	0.395606
258.523	0.394262
260.016	0.392925
261.517	0.391596
263.027	0.390274
264.545	0.38896
266.073	0.387652
267.609	0.386352
269.153	0.38506
270.707	0.383774
272.27	0.382496
273.842	0.381225
275.423	0.379961
277.013	0.378705
278.612	0.377455
280.221	0.376212
281.838	0.374977
283.465	0.373748
285.102	0.372526
286.748	0.371312
288.403	0.370104
290.068	0.368903
291.743	0.367708
293.427	0.366521
295.121	0.36534
296.825	0.364166
298.538	0.362999
300.262	0.361838
301.995	0.360684
303.739	0.359537
305.492	0.358396
307.256	0.357261
309.03	0.356134
310.814	0.355012
312.608	0.353897
314.413	0.352789
316.228	0.351687
318.053	0.350591
319.89	0.349501
321.736	0.348418
323.594	0.347341
325.462	0.346271
327.341	0.345206
329.23	0.344148
331.131	0.343096
333.043	0.34205
334.965	0.34101
336.899	0.339976
338.844	0.338948
340.8	0.337926
342.768	0.33691
344.747	0.335901
346.737	0.334897
348.739	0.333898
350.752	0.332906
352.777	0.33192
354.813	0.330939
356.862	0.329965
358.922	0.328996
360.994	0.328032
363.078	0.327075
365.174	0.326123
367.282	0.325176
369.403	0.324236
371.535	0.323301
373.68	0.322371
375.837	0.321447
378.007	0.320529
380.189	0.319616
382.384	0.318709
384.592	0.317807
386.812	0.31691
389.045	0.316019
391.291	0.315133
393.55	0.314253
395.822	0.313378
398.107	0.312508
400.405	0.311644
402.717	0.310784
405.042	0.30993
407.38	0.309081
409.732	0.308238
412.098	0.307399
414.477	0.306566
416.869	0.305738
419.276	0.304914
421.697	0.304096
424.131	0.303283
426.58	0.302475
429.042	0.301672
431.519	0.300874
434.01	0.300081
436.516	0.299292
439.036	0.298509
441.57	0.297731
444.12	0.296957
446.684	0.296188
449.262	0.295424
451.856	0.294665
454.465	0.29391
457.088	0.293161
459.727	0.292416
462.381	0.291675
465.05	0.29094
467.735	0.290209
470.435	0.289483
473.151	0.288761
475.883	0.288044
478.63	0.287331
481.393	0.286623
484.172	0.28592
486.968	0.285221
489.779	0.284527
492.606	0.283837
495.45	0.283151
498.31	0.28247
501.187	0.281793
504.081	0.281121
506.991	0.280453
509.918	0.279789
512.861	0.27913
515.822	0.278475
518.8	0.277825
521.795	0.277178
524.807	0.276536
527.837	0.275898
530.884	0.275264
533.949	0.274635
537.032	0.27401
540.132	0.273388
543.25	0.272771
546.387	0.272159
549.541	0.27155
552.713	0.270945
555.904	0.270344
559.114	0.269748
562.341	0.269155
565.588	0.268566
568.853	0.267982
572.137	0.267401
575.44	0.266824
578.762	0.266252
582.103	0.265683
585.464	0.265118
588.844	0.264557
592.243	0.264
595.662	0.263446
599.101	0.262897
602.56	0.262351
606.038	0.261809
609.537	0.261271
613.056	0.260737
616.595	0.260206
620.155	0.259679
623.735	0.259156
627.336	0.258636
630.957	0.258121
634.6	0.257608
638.263	0.2571
641.948	0.256595
645.654	0.256094
649.382	0.255596
653.131	0.255102
656.901	0.254611
660.693	0.254124
664.508	0.253641
668.344	0.253161
672.202	0.252684
676.083	0.252211
679.986	0.251742
683.912	0.251276
687.86	0.250813
691.831	0.250354
695.825	0.249898
699.842	0.249446
703.882	0.248996
707.946	0.248551
712.033	0.248108
716.143	0.247669
720.278	0.247234
724.436	0.246801
728.618	0.246372
732.825	0.245946
737.055	0.245524
741.31	0.245104
745.59	0.244688
749.894	0.244275
754.223	0.243865
758.578	0.243459
762.957	0.243055
767.361	0.242655
771.792	0.242258
776.247	0.241864
780.728	0.241473
785.236	0.241085
789.769	0.240701
794.328	0.240319
798.914	0.239941
803.526	0.239565
808.165	0.239193
812.831	0.238823
817.523	0.238457
822.243	0.238093
826.99	0.237733
831.764	0.237375
836.566	0.23702
841.395	0.236669
846.253	0.23632
851.138	0.235974
856.052	0.235631
860.994	0.235291
865.964	0.234954
870.964	0.234619
875.992	0.234288
881.049	0.233959
886.135	0.233633
891.251	0.23331
896.396	0.23299
901.571	0.232673
906.776	0.232358
912.011	0.232046
917.276	0.231737
922.571	0.23143
927.897	0.231126
933.254	0.230825
938.642	0.230527
944.061	0.230231
949.511	0.229938
954.993	0.229648
960.506	0.22936
966.051	0.229075
971.628	0.228792
977.237	0.228491
982.879	0.228189
988.553	0.227889
994.26	0.227592
1000	0.227298
1005.77	0.227006
1011.58	0.226716
1017.42	0.226429
1023.29	0.226144
1029.2	0.225862
1035.14	0.225582
1041.12	0.225305
1047.13	0.22503
1053.17	0.224758
1059.25	0.224488
1065.37	0.22422
1071.52	0.223955
1077.71	0.223692
1083.93	0.223432
1090.18	0.223174
1096.48	0.222918
1102.81	0.222664
1109.17	0.222413
1115.58	0.222164
1122.02	0.221918
1128.5	0.221673
1135.01	0.221431
1141.56	0.221191
1148.15	0.220954
1154.78	0.220718
1161.45	0.220485
1168.15	0.220254
1174.9	0.220026
1181.68	0.219799
1188.5	0.219575
1195.36	0.219353
1202.26	0.219133
1209.21	0.218915
1216.19	0.218699
1223.21	0.218486
1230.27	0.218274
1237.37	0.218065
1244.51	0.217858
1251.7	0.217652
1258.93	0.217449
1266.19	0.217248
1273.5	0.217049
1280.86	0.216852
1288.25	0.216657
1295.69	0.216465
1303.17	0.216274
1310.69	0.216085
1318.26	0.215898
1325.87	0.215713
1333.52	0.21553
1341.22	0.215349
1348.96	0.21517
1356.75	0.214993
1364.58	0.214818
1372.46	0.214645
1380.38	0.214473
1388.35	0.214304
1396.37	0.214136
1404.43	0.213971
1412.54	0.213807
1420.69	0.213645
1428.89	0.213485
1437.14	0.213327
1445.44	0.21317
1453.78	0.213016
1462.18	0.212863
1470.62	0.212712
1479.11	0.212563
1487.65	0.212416
1496.24	0.21227
1504.87	0.212127
1513.56	0.211984
1522.3	0.211844
1531.09	0.211706
1539.93	0.211569
1548.82	0.211434
1557.76	0.2113
1566.75	0.211169
1575.8	0.211039
1584.89	0.210911
1594.04	0.210784
1603.25	0.210659
1612.5	0.210536
1621.81	0.210414
1631.17	0.210294
1640.59	0.210176
1650.06	0.210059
1659.59	0.209944
1669.17	0.209831
1678.8	0.209719
1688.5	0.209609
1698.24	0.2095
1708.05	0.209393
1717.91	0.209287
1727.83	0.209183
1737.8	0.209081
1747.83	0.20898
1757.92	0.20888
1768.07	0.208782
1778.28	0.208686
1788.55	0.208591
1798.87	0.208498
1809.26	0.208406
1819.7	0.208316
1830.21	0.208227
1840.77	0.208139
1851.4	0.208053
1862.09	0.207969
1872.84	0.207886
1883.65	0.207804
1894.52	0.207724
1905.46	0.207645
1916.46	0.207568
1927.52	0.207492
1938.65	0.207417
1949.84	0.207344
1961.1	0.207272
1972.42	0.207201
1983.81	0.207132
1995.26	0.207065
2006.78	0.206998
2018.37	0.206933
2030.02	0.206869
2041.74	0.206807
2053.53	0.206746
2065.38	0.206686
2077.3	0.206627
2089.3	0.20657
2101.36	0.206514
2113.49	0.20646
2125.69	0.206406
2137.96	0.206354
2150.3	0.206303
2162.72	0.206254
2175.2	0.206205
2187.76	0.206158
2200.39	0.206112
2213.09	0.206067
2225.87	0.206024
2238.72	0.205982
2251.65	0.205941
2264.64	0.205901
2277.72	0.205862
2290.87	0.205824
2304.09	0.205788
2317.39	0.205753
2330.77	0.205719
2344.23	0.205686
2357.76	0.205654
2371.37	0.205624
2385.06	0.205594
2398.83	0.205566
2412.68	0.205538
2426.61	0.205512
2440.62	0.205487
2454.71	0.205463
2468.88	0.20544
2483.13	0.205419
2497.47	0.205398
2511.89	0.205378
2526.39	0.20536
2540.97	0.205342
2555.64	0.205325
2570.4	0.20531
2585.23	0.205296
2600.16	0.205282
2615.17	0.20527
2630.27	0.205258
2645.45	0.205248
2660.73	0.205239
2676.09	0.20523
2691.53	0.205223
2707.07	0.205217
2722.7	0.205211
2738.42	0.205207
2754.23	0.205203
2770.13	0.205201
2786.12	0.205199
2802.21	0.205198
2818.38	0.205199
2834.65	0.2052
2851.02	0.205202
2867.48	0.205205
2884.03	0.205209
2900.68	0.205214
2917.43	0.20522
2934.27	0.205227
2951.21	0.205234
2968.25	0.205243
2985.38	0.205252
3002.62	0.205262
3019.95	0.205273
3037.39	0.205285
3054.92	0.205298
3072.56	0.205312
3090.3	0.205326
3108.14	0.205342
3126.08	0.205358
3144.13	0.205375
3162.28	0.205393
3180.53	0.205411
3198.9	0.205431
3217.36	0.205451
3235.94	0.205472
3254.62	0.205494
3273.41	0.205517
3292.3	0.20554
3311.31	0.205564
3330.43	0.205589
3349.65	0.205615
3368.99	0.205641
3388.44	0.205669
3408	0.205697
3427.68	0.205725
3447.47	0.205755
3467.37	0.205785
3487.39	0.205816
3507.52	0.205848
3527.77	0.20588
3548.13	0.205913
3568.62	0.205947
3589.22	0.205981
3609.94	0.206017
3630.78	0.206053
3651.74	0.206089
3672.82	0.206126
3694.03	0.206164
3715.35	0.206203
3736.8	0.206242
3758.37	0.206282
3780.07	0.206323
3801.89	0.206364
3823.84	0.206406
3845.92	0.206449
3868.12	0.206492
3890.45	0.206536
3912.91	0.20658
3935.5	0.206625
3958.22	0.206671
3981.07	0.206717
4004.05	0.206764
4027.17	0.206812
4050.42	0.20686
4073.8	0.206909
4097.32	0.206958
4120.98	0.207008
4144.77	0.207059
4168.69	0.20711
4192.76	0.207161
4216.97	0.207214
4241.31	0.207266
4265.8	0.20732
4290.42	0.207374
4315.19	0.207428
4340.1	0.207483
4365.16	0.207539
4390.36	0.207595
4415.7	0.207652
4441.2	0.207709
4466.84	0.207766
4492.62	0.207825
4518.56	0.207883
4544.65	0.207943
4570.88	0.208002
4597.27	0.208063
4623.81	0.208124
4650.5	0.208185
4677.35	0.208247
4704.35	0.208309
4731.51	0.208372
4758.83	0.208435
4786.3	0.208499
4813.93	0.208563
4841.72	0.208627
4869.68	0.208693
4897.79	0.208758
4926.06	0.208824
4954.5	0.208891
4983.1	0.208958
5011.87	0.209025
5040.81	0.209093
5069.91	0.209161
5099.18	0.20923
5128.61	0.209299
5158.22	0.209369
5188	0.209439
5217.95	0.209509
5248.07	0.20958
5278.37	0.209651
5308.84	0.209723
5339.49	0.209795
5370.32	0.209868
5401.32	0.209941
5432.5	0.210014
5463.87	0.210088
5495.41	0.210162
5527.13	0.210236
5559.04	0.210311
5591.14	0.210386
5623.41	0.210462
5655.88	0.210538
5688.53	0.210614
5721.37	0.210691
5754.4	0.210768
5787.62	0.210846
5821.03	0.210923
5854.64	0.211002
5888.44	0.21108
5922.43	0.211159
5956.62	0.211238
5991.01	0.211318
6025.6	0.211398
6060.38	0.211478
6095.37	0.211558
6130.56	0.211639
6165.95	0.21172
6201.55	0.211802
6237.35	0.211884
6273.36	0.211966
6309.57	0.212049
6346	0.212131
6382.63	0.212214
6419.48	0.212298
6456.54	0.212382
6493.82	0.212466
6531.31	0.21255
6569.01	0.212635
6606.93	0.212719
6645.08	0.212805
6683.44	0.21289
6722.02	0.212976
6760.83	0.213062
6799.86	0.213148
6839.12	0.213235
6878.6	0.213322
6918.31	0.213409
6958.25	0.213496
6998.42	0.213584
7038.82	0.213672
7079.46	0.21376
7120.33	0.213848
7161.43	0.213937
7202.78	0.214026
7244.36	0.214115
7286.18	0.214205
7328.25	0.214294
7370.55	0.214384
7413.1	0.214475
7455.9	0.214565
7498.94	0.214656
7542.23	0.214746
7585.78	0.214838
7629.57	0.214929
7673.61	0.21502
7717.92	0.215112
7762.47	0.215204
7807.28	0.215296
7852.36	0.215389
7897.69	0.215482
7943.28	0.215574
7989.14	0.215667
8035.26	0.215761
8081.65	0.215854
8128.31	0.215948
8175.23	0.216042
8222.43	0.216136
8269.9	0.21623
8317.64	0.216325
8365.66	0.216419
8413.95	0.216514
8462.53	0.216609
8511.38	0.216704
8560.52	0.2168
8609.94	0.216895
8659.64	0.216991
8709.64	0.217087
8759.92	0.217183
8810.49	0.217279
8861.35	0.217376
8912.51	0.217472
8963.96	0.217569
9015.71	0.217666
9067.76	0.217763
9120.11	0.217861
9172.76	0.217958
9225.71	0.218056
9278.97	0.218153
9332.54	0.218251
9386.42	0.218349
9440.61	0.218447
9495.11	0.218546
9549.93	0.218644
9605.06	0.218743
9660.51	0.218842
9716.28	0.218941
9772.37	0.21904
9828.79	0.219139
9885.53	0.219238
9942.6	0.219338
10000	0.219437
10057.7	0.219537
10115.8	0.219637
10174.2	0.219737
10232.9	0.219837
10292	0.219937
10351.4	0.220038
10411.2	0.220138
10471.3	0.220239
10531.7	0.22034
10592.5	0.22044
10653.7	0.220541
10715.2	0.220642
10777.1	0.220744
10839.3	0.220845
10901.8	0.220946
10964.8	0.221048
11028.1	0.221149
11091.7	0.221251
11155.8	0.221353
11220.2	0.221455
11285	0.221557
11350.1	0.221659
11415.6	0.221761
11481.5	0.221864
11547.8	0.221966
11614.5	0.222069
11681.5	0.222171
11749	0.222274
11816.8	0.222377
11885	0.22248
11953.6	0.222582
12022.6	0.222686
12092.1	0.222789
12161.9	0.222892
12232.1	0.222995
12302.7	0.223099
12373.7	0.223202
12445.1	0.223305
12517	0.223409
12589.3	0.223513
12661.9	0.223617
12735	0.22372
12808.6	0.223824
12882.5	0.223928
12956.9	0.224032
13031.7	0.224136
13106.9	0.224241
13182.6	0.224345
13258.7	0.224449
13335.2	0.224553
13412.2	0.224658
13489.6	0.224762
13567.5	0.224867
13645.8	0.224972
13724.6	0.225076
13803.8	0.225181
13883.5	0.225286
13963.7	0.225391
14044.3	0.225495
14125.4	0.2256
14206.9	0.225705
14288.9	0.22581
14371.4	0.225916
14454.4	0.226021
14537.8	0.226126
14621.8	0.226231
14706.2	0.226336
14791.1	0.226442
14876.5	0.226547
14962.4	0.226653
15048.7	0.226758
15135.6	0.226864
15223	0.226969
15310.9	0.227075
15399.3	0.22718
15488.2	0.227286
15577.6	0.227392
15667.5	0.227497
15758	0.227603
15848.9	0.227709
15940.4	0.227815
16032.5	0.227921
16125	0.228027
16218.1	0.228133
16311.7	0.228239
16405.9	0.228345
16500.6	0.228451
16595.9	0.228557
16691.7	0.228663
16788	0.228769
16885	0.228875
16982.4	0.228981
17080.5	0.229087
17179.1	0.229194
17278.3	0.2293
17378	0.229406
17478.3	0.229512
17579.2	0.229619
17680.7	0.229725
17782.8	0.229831
17885.5	0.229938
17988.7	0.230044
18092.6	0.23015
18197	0.230257
18302.1	0.230363
18407.7	0.23047
18514	0.230576
18620.9	0.230683
18728.4	0.230789
18836.5	0.230895
18945.2	0.231002
19054.6	0.231108
19164.6	0.231215
19275.2	0.231322
19386.5	0.231428
19498.4	0.231535
19611	0.231641
19724.2	0.231748
19838.1	0.231854
19952.6	0.231961
20067.8	0.232067
20183.7	0.232174
20300.2	0.232281
20417.4	0.232387
20535.3	0.232494
20653.8	0.2326
20773	0.232707
20893	0.232814
21013.6	0.23292
21134.9	0.233027
21256.9	0.233133
21379.6	0.23324
21503	0.233347
21627.2	0.233453
21752	0.23356
21877.6	0.233666
22003.9	0.233773
22130.9	0.23388
22258.7	0.233986
22387.2	0.234093
22516.5	0.234199
22646.4	0.234306
22777.2	0.234412
22908.7	0.234519
23040.9	0.234626
23173.9	0.234732
23307.7	0.234839
23442.3	0.234945
23577.6	0.235052
23713.7	0.235158
23850.6	0.235265
23988.3	0.235371
24126.8	0.235478
24266.1	0.235584
24406.2	0.235691
24547.1	0.235797
24688.8	0.235903
24831.3	0.23601
24974.7	0.236116
25118.9	0.236223
25263.9	0.236329
25409.7	0.236435
25556.4	0.236542
25704	0.236648
25852.3	0.236754
26001.6	0.236861
26151.7	0.236967
26302.7	0.237073
26454.5	0.23718
26607.3	0.237286
26760.9	0.237392
26915.3	0.237498
27070.7	0.237604
27227	0.237711
27384.2	0.237817
27542.3	0.237923
27701.3	0.238029
27861.2	0.238135
28022.1	0.238241
28183.8	0.238347
28346.5	0.238453
28510.2	0.238559
28674.8	0.238665
28840.3	0.238771
29006.8	0.238877
29174.3	0.238983
29342.7	0.239089
29512.1	0.239195
29682.5	0.239301
29853.8	0.239407
30026.2	0.239512
30199.5	0.239618
30373.9	0.239724
30549.2	0.23983
30725.6	0.239935
30903	0.240041
31081.4	0.240147
31260.8	0.240252
31441.3	0.240358
31622.8	0.240464
31805.3	0.240569
31989	0.240675
32173.6	0.24078
32359.4	0.240886
32546.2	0.240991
32734.1	0.241097
32923	0.241202
33113.1	0.241308
33304.3	0.241413
33496.5	0.241518
33689.9	0.241623
33884.4	0.241729
34080	0.241834
34276.8	0.241939
34474.7	0.242044
34673.7	0.24215
34873.9	0.242255
35075.2	0.24236
35277.7	0.242465
35481.3	0.24257
35686.2	0.242675
35892.2	0.24278
36099.4	0.242885
36307.8	0.24299
36517.4	0.243095
36728.2	0.243199
36940.3	0.243304
37153.5	0.243409
37368	0.243514
37583.7	0.243618
37800.7	0.243723
38018.9	0.243828
38238.4	0.243932
38459.2	0.244037
38681.2	0.244142
38904.5	0.244246
39129.1	0.244351
39355	0.244455
39582.2	0.244559
39810.7	0.244664
40040.5	0.244768
40271.7	0.244873
40504.2	0.244977
40738	0.245081
40973.2	0.245185
41209.8	0.245289
41447.7	0.245394
41686.9	0.245498
41927.6	0.245602
42169.7	0.245706
42413.1	0.24581
42658	0.245914
42904.2	0.246018
43151.9	0.246122
43401	0.246226
43651.6	0.246329
43903.6	0.246433
44157	0.246537
44412	0.246641
44668.4	0.246744
44926.2	0.246848
45185.6	0.246952
45446.5	0.247055
45708.8	0.247159
45972.7	0.247262
46238.1	0.247366
46505	0.247469
46773.5	0.247572
47043.5	0.247676
47315.1	0.247779
47588.3	0.247882
47863	0.247986
48139.3	0.248089
48417.2	0.248192
48696.8	0.248295
48977.9	0.248398
49260.6	0.248501
49545	0.248604
49831	0.248707
50118.7	0.24881
50408.1	0.248913
50699.1	0.249016
50991.8	0.249119
51286.1	0.249222
51582.2	0.249324
51880	0.249427
52179.5	0.24953
52480.7	0.249632
52783.7	0.249735
53088.4	0.249837
53394.9	0.24994
53703.2	0.250042
54013.2	0.250145
54325	0.250247
54638.7	0.250349
54954.1	0.250452
55271.3	0.250554
55590.4	0.250656
55911.4	0.250758
56234.1	0.250861
56558.8	0.250963
56885.3	0.251065
57213.7	0.251167
57544	0.251269
57876.2	0.251371
58210.3	0.251473
58546.4	0.251574
58884.4	0.251676
59224.3	0.251778
59566.2	0.25188
59910.1	0.251981
60256	0.252083
60603.8	0.252185
60953.7	0.252286
61305.6	0.252388
61659.5	0.252489
62015.5	0.252591
62373.5	0.252692
62733.6	0.252794
63095.7	0.252895
63460	0.252996
63826.3	0.253097
64194.8	0.253199
64565.4	0.2533
64938.2	0.253401
65313.1	0.253502
65690.1	0.253603
66069.3	0.253704
66450.8	0.253805
66834.4	0.253906
67220.2	0.254007
67608.3	0.254107
67998.6	0.254208
68391.2	0.254309
68786	0.25441
69183.1	0.25451
69582.5	0.254611
69984.2	0.254711
70388.2	0.254812
70794.6	0.254912
71203.3	0.255013
71614.3	0.255113
72027.8	0.255214
72443.6	0.255314
72861.8	0.255414
73282.5	0.255514
73705.5	0.255615
74131	0.255715
74559	0.255815
74989.4	0.255915
75422.3	0.256015
75857.8	0.256115
76295.7	0.256215
76736.1	0.256315
77179.2	0.256414
77624.7	0.256514
78072.8	0.256614
78523.6	0.256714
78976.9	0.256813
79432.8	0.256913
79891.4	0.257012
80352.6	0.257112
80816.5	0.257211
81283.1	0.257311
81752.3	0.25741
82224.3	0.25751
82699	0.257609
83176.4	0.257708
83656.6	0.257807
84139.5	0.257907
84625.3	0.258006
85113.8	0.258105
85605.2	0.258204
86099.4	0.258303
86596.4	0.258402
87096.4	0.258501
87599.2	0.2586
88104.9	0.258698
88613.5	0.258797
89125.1	0.258896
89639.6	0.258995
90157.1	0.259093
90677.6	0.259192
91201.1	0.25929
91727.6	0.259389
92257.1	0.259487
92789.7	0.259586
93325.4	0.259684
93864.2	0.259783
94406.1	0.259881
94951.1	0.259979
95499.3	0.260077
96050.6	0.260175
96605.1	0.260274
97162.8	0.260372
97723.7	0.26047
98287.9	0.260568
98855.3	0.260666
99426	0.260763
100000	0.260861
100577	0.260959
101158	0.261057
101742	0.261155
102329	0.261252
102920	0.26135
103514	0.261447
104112	0.261545
104713	0.261642
105317	0.26174
105925	0.261837
106537	0.261935
107152	0.262032
107771	0.262129
108393	0.262226
109018	0.262323
109648	0.262421
110281	0.262518
110917	0.262615
111558	0.262712
112202	0.262809
112850	0.262906
113501	0.263002
114156	0.263099
114815	0.263196
115478	0.263293
116145	0.263389
116815	0.263486
117490	0.263582
118168	0.263679
118850	0.263775
119536	0.263872
120226	0.263968
120921	0.264065
121619	0.264161
122321	0.264257
123027	0.264353
123737	0.26445
124451	0.264546
125170	0.264642
125893	0.264738
126619	0.264834
127350	0.26493
128086	0.265026
128825	0.265121
129569	0.265217
130317	0.265313
131069	0.265409
131826	0.265504
132587	0.2656
133352	0.265695
134122	0.265791
134896	0.265886
135675	0.265982
136458	0.266077
137246	0.266173
138038	0.266268
138835	0.266363
139637	0.266458
140443	0.266553
141254	0.266649
142069	0.266744
142889	0.266839
143714	0.266934
144544	0.267028
145378	0.267123
146218	0.267218
147062	0.267313
147911	0.267408
148765	0.267502
149624	0.267597
150487	0.267691
151356	0.267786
152230	0.267881
153109	0.267975
153993	0.268069
154882	0.268164
155776	0.268258
156675	0.268352
157580	0.268446
158489	0.268541
159404	0.268635
160325	0.268729
161250	0.268823
162181	0.268917
163117	0.269011
164059	0.269105
165006	0.269198
165959	0.269292
166917	0.269386
167880	0.26948
168850	0.269573
169824	0.269667
170805	0.26976
171791	0.269854
172783	0.269947
173780	0.270041
174783	0.270134
175792	0.270227
176807	0.270321
177828	0.270414
178855	0.270507
179887	0.2706
180926	0.270693
181970	0.270786
183021	0.270879
184077	0.270972
185140	0.271065
186209	0.271158
187284	0.27125
188365	0.271343
189452	0.271436
190546	0.271528
191646	0.271621
192752	0.271714
193865	0.271806
194984	0.271899
196110	0.271991
197242	0.272083
198381	0.272176
199526	0.272268
200678	0.27236
201837	0.272452
203002	0.272544
204174	0.272636
205353	0.272728
206538	0.27282
207730	0.272912
208930	0.273004
210136	0.273096
211349	0.273188
212569	0.273279
213796	0.273371
215030	0.273462
216272	0.273554
217520	0.273646
218776	0.273737
220039	0.273828
221309	0.27392
222587	0.274011
223872	0.274102
225165	0.274194
226464	0.274285
227772	0.274376
229087	0.274467
230409	0.274558
231739	0.274649
233077	0.27474
234423	0.274831
235776	0.274921
237137	0.275012
238506	0.275103
239883	0.275194
241268	0.275284
242661	0.275375
244062	0.275465
245471	0.275556
246888	0.275646
248313	0.275737
249747	0.275827
251189	0.275917
252639	0.276007
254097	0.276098
255564	0.276188
257040	0.276278
258523	0.276368
260016	0.276458
261517	0.276548
263027	0.276638
264545	0.276727
266073	0.276817
267609	0.276907
269153	0.276996
270707	0.277086
272270	0.277176
273842	0.277265
275423	0.277355
277013	0.277444
278612	0.277533
280221	0.277623
281838	0.277712
283465	0.277801
285102	0.27789
286748	0.277979
288403	0.278069
290068	0.278158
291743	0.278246
293427	0.278335
295121	0.278424
296825	0.278513
298538	0.278602
300262	0.27869
301995	0.278779
303739	0.278868
305492	0.278956
307256	0.279045
309030	0.279133
310814	0.279222
312608	0.27931
314413	0.279398
316228	0.279486
318053	0.279575
319890	0.279663
321736	0.279751
323594	0.279839
325462	0.279927
327341	0.280015
329230	0.280103
331131	0.28019
333043	0.280278
334965	0.280366
336899	0.280454
338844	0.280541
340800	0.280629
342768	0.280716
344747	0.280804
346737	0.280891
348739	0.280978
350752	0.281066
352777	0.281153
354813	0.28124
356862	0.281327
358922	0.281414
360994	0.281501
363078	0.281588
365174	0.281675
367282	0.281762
369403	0.281849
371535	0.281936
373680	0.282022
375837	0.282109
378007	0.282196
380189	0.282282
382384	0.282369
384592	0.282455
386812	0.282542
389045	0.282628
391291	0.282714
393550	0.2828
395822	0.282887
398107	0.282973
400405	0.283059
402717	0.283145
405042	0.283231
407380	0.283317
409732	0.283403
412098	0.283488
414477	0.283574
416869	0.28366
419276	0.283745
421697	0.283831
424131	0.283916
426580	0.284002
429042	0.284087
431519	0.284173
434010	0.284258
436516	0.284343
439036	0.284429
441570	0.284514
444120	0.284599
446684	0.284684
449262	0.284769
451856	0.284854
454465	0.284939
457088	0.285023
459727	0.285108
462381	0.285193
465050	0.285278
467735	0.285362
470435	0.285447
473151	0.285531
475883	0.285616
478630	0.2857
481393	0.285784
484172	0.285869
486968	0.285953
489779	0.286037
492606	0.286121
495450	0.286205
498310	0.286289
501187	0.286373
504081	0.286457
506991	0.286541
509918	0.286625
512861	0.286708
515822	0.286792
518800	0.286875
521795	0.286959
524807	0.287043
527837	0.287126
530884	0.287209
533949	0.287293
537032	0.287376
540132	0.287459
543250	0.287542
546387	0.287625
549541	0.287708
552713	0.287791
555904	0.287874
559114	0.287957
562341	0.28804
565588	0.288123
568853	0.288205
572137	0.288288
575440	0.288371
578762	0.288453
582103	0.288536
585464	0.288618
588844	0.2887
592243	0.288783
595662	0.288865
599101	0.288947
602560	0.289029
606038	0.289111
609537	0.289193
613056	0.289275
616595	0.289357
620155	0.289439
623735	0.289521
627336	0.289602
630957	0.289684
634600	0.289766
638263	0.289847
641948	0.289929
645654	0.29001
649382	0.290091
653131	0.290173
656901	0.290254
660693	0.290335
664508	0.290416
668344	0.290497
672202	0.290578
676083	0.290659
679986	0.29074
683912	0.290821
687860	0.290902
691831	0.290982
695825	0.291063
699842	0.291144
703882	0.291224
707946	0.291305
712033	0.291385
716143	0.291465
720278	0.291546
724436	0.291626
728618	0.291706
732825	0.291786
737055	0.291866
741310	0.291946
745590	0.292026
749894	0.292106
754223	0.292186
758578	0.292265
762957	0.292345
767361	0.292425
771792	0.292504
776247	0.292584
780728	0.292663
785236	0.292743
789769	0.292822
794328	0.292901
798914	0.29298
803526	0.293059
808165	0.293138
812831	0.293217
817523	0.293296
822243	0.293375
826990	0.293454
831764	0.293533
836566	0.293611
841395	0.29369
846253	0.293769
851138	0.293847
856052	0.293926
860994	0.294004
865964	0.294082
870964	0.29416
875992	0.294239
881049	0.294317
886135	0.294395
891251	0.294473
896396	0.294551
901571	0.294629
906776	0.294706
912011	0.294784
917276	0.294862
922571	0.29494
927897	0.295017
933254	0.295095
938642	0.295172
944061	0.295249
949511	0.295327
954993	0.295404
960506	0.295481
966051	0.295558
971628	0.295635
977237	0.295712
982879	0.295789
988553	0.295866
994260	0.295943
1e+06	0.29602
1.00577e+06	0.296096
1.01158e+06	0.296173
1.01742e+06	0.296249
1.02329e+06	0.296326
1.0292e+06	0.296402
1.03514e+06	0.296479
1.04112e+06	0.296555
1.04713e+06	0.296631
1.05317e+06	0.296707
1.05925e+06	0.296783
1.06537e+06	0.296859
1.07152e+06	0.296935
1.07771e+06	0.297011
1.08393e+06	0.297087
1.09018e+06	0.297163
1.09648e+06	0.297238
1.10281e+06	0.297314
1.10917e+06	0.29739
1.11558e+06	0.297465
1.12202e+06	0.297541
1.1285e+06	0.297616
1.13501e+06	0.297691
1.14156e+06	0.297767
1.14815e+06	0.297842
1.15478e+06	0.297917
1.16145e+06	0.297992
1.16815e+06	0.298067
1.1749e+06	0.298142
1.18168e+06	0.298217
1.1885e+06	0.298292
1.19536e+06	0.298366
1.20226e+06	0.298441
1.20921e+06	0.298516
1.21619e+06	0.29859
1.22321e+06	0.298665
1.23027e+06	0.298739
1.23737e+06	0.298813
1.24451e+06	0.298888
1.2517e+06	0.298962
1.25893e+06	0.299036
1.26619e+06	0.29911
1.2735e+06	0.299184
1.28086e+06	0.299258
1.28825e+06	0.299332
1.29569e+06	0.299406
1.30317e+06	0.29948
1.31069e+06	0.299553
1.31826e+06	0.299627
1.32587e+06	0.299701
1.33352e+06	0.299774
1.34122e+06	0.299848
1.34896e+06	0.299921
1.35675e+06	0.299994
1.36458e+06	0.300067
1.37246e+06	0.300141
1.38038e+06	0.300214
1.38835e+06	0.300287
1.39637e+06	0.30036
1.40443e+06	0.300433
1.41254e+06	0.300506
1.42069e+06	0.300578
1.42889e+06	0.300651
1.43714e+06	0.300724
1.44544e+06	0.300796
1.45378e+06	0.300869
1.46218e+06	0.300941
1.47062e+06	0.301014
1.47911e+06	0.301086
1.48765e+06	0.301158
1.49624e+06	0.301231
1.50487e+06	0.301303
1.51356e+06	0.301375
1.5223e+06	0.301447
1.53109e+06	0.301519
1.53993e+06	0.301591
1.54882e+06	0.301663
1.55776e+06	0.301734
1.56675e+06	0.301806
1.5758e+06	0.301878
1.58489e+06	0.301949
1.59404e+06	0.302021
1.60325e+06	0.302092
1.6125e+06	0.302164
1.62181e+06	0.302235
1.63117e+06	0.302306
1.64059e+06	0.302377
1.65006e+06	0.302448
1.65959e+06	0.302519
1.66917e+06	0.30259
1.6788e+06	0.302661
1.6885e+06	0.302732
1.69824e+06	0.302803
1.70805e+06	0.302874
1.71791e+06	0.302944
1.72783e+06	0.303015
1.7378e+06	0.303086
1.74783e+06	0.303156
1.75792e+06	0.303226
1.76807e+06	0.303297
1.77828e+06	0.303367
1.78855e+06	0.303437
1.79887e+06	0.303507
1.80926e+06	0.303578
1.8197e+06	0.303648
1.83021e+06	0.303718
1.84077e+06	0.303788
1.8514e+06	0.303857
1.86209e+06	0.303927
1.87284e+06	0.303997
1.88365e+06	0.304066
1.89452e+06	0.304136
1.90546e+06	0.304206
1.91646e+06	0.304275
1.92752e+06	0.304344
1.93865e+06	0.304414
1.94984e+06	0.304483
1.9611e+06	0.304552
1.97242e+06	0.304621
1.98381e+06	0.304691
1.99526e+06	0.30472
2.00678e+06	0.304708
2.01837e+06	0.304696
2.03002e+06	0.304684
2.04174e+06	0.304673
2.05353e+06	0.304661
2.06538e+06	0.30465
2.0773e+06	0.304638
2.0893e+06	0.304627
2.10136e+06	0.304616
2.11349e+06	0.304605
2.12569e+06	0.304594
2.13796e+06	0.304584
2.1503e+06	0.304573
2.16272e+06	0.304563
2.1752e+06	0.304553
2.18776e+06	0.304542
2.20039e+06	0.304532
2.21309e+06	0.304522
2.22587e+06	0.304513
2.23872e+06	0.304503
2.25165e+06	0.304493
2.26464e+06	0.304484
2.27772e+06	0.304474
2.29087e+06	0.304465
2.30409e+06	0.304456
2.31739e+06	0.304447
2.33077e+06	0.304438
2.34423e+06	0.304429
2.35776e+06	0.30442
2.37137e+06	0.304412
2.38506e+06	0.304403
2.39883e+06	0.304395
2.41268e+06	0.304386
2.42661e+06	0.304378
2.44062e+06	0.30437
2.45471e+06	0.304362
2.46888e+06	0.304354
2.48313e+06	0.304346
2.49747e+06	0.304338
2.51189e+06	0.30433
2.52639e+06	0.304323
2.54097e+06	0.304315
2.55564e+06	0.304308
2.5704e+06	0.3043
2.58523e+06	0.304293
2.60016e+06	0.304286
2.61517e+06	0.304279
2.63027e+06	0.304272
2.64545e+06	0.304265
2.66073e+06	0.304258
2.67609e+06	0.304251
2.69153e+06	0.304244
2.70707e+06	0.304238
2.7227e+06	0.304231
2.73842e+06	0.304225
2.75423e+06	0.304218
2.77013e+06	0.304212
2.78612e+06	0.304206
2.80221e+06	0.304199
2.81838e+06	0.304193
2.83465e+06	0.304187
2.85102e+06	0.304181
2.86748e+06	0.304175
2.88403e+06	0.304169
2.90068e+06	0.304164
2.91743e+06	0.304158
2.93427e+06	0.304152
2.95121e+06	0.304147
2.96825e+06	0.304141
2.98538e+06	0.304136
3.00262e+06	0.30413
3.01995e+06	0.304125
3.03739e+06	0.30412
3.05492e+06	0.304115
3.07256e+06	0.304109
3.0903e+06	0.304104
3.10814e+06	0.304099
3.12608e+06	0.304094
3.14413e+06	0.304089
3.16228e+06	0.304084
3.18053e+06	0.30408
3.1989e+06	0.304075
3.21736e+06	0.30407
3.23594e+06	0.304066
3.25462e+06	0.304061
3.27341e+06	0.304056
3.2923e+06	0.304052
3.31131e+06	0.304047
3.33043e+06	0.304043
3.34965e+06	0.304039
3.36899e+06	0.304034
3.38844e+06	0.30403
3.408e+06	0.304026
3.42768e+06	0.304022
3.44747e+06	0.304018
3.46737e+06	0.304014
3.48739e+06	0.30401
3.50752e+06	0.304006
3.52777e+06	0.304002
3.54813e+06	0.303998
3.56862e+06	0.303994
3.58922e+06	0.30399
3.60994e+06	0.303987
3.63078e+06	0.303983
3.65174e+06	0.303979
3.67282e+06	0.303976
3.69403e+06	0.303972
3.71535e+06	0.303969
3.7368e+06	0.303965
3.75837e+06	0.303962
3.78007e+06	0.303958
3.80189e+06	0.303955
3.82384e+06	0.303952
3.84592e+06	0.303948
3.86812e+06	0.303945
3.89045e+06	0.303942
3.91291e+06	0.303939
3.9355e+06	0.303935
3.95822e+06	0.303932
3.98107e+06	0.303929
4.00405e+06	0.303926
4.02717e+06	0.303923
4.05042e+06	0.30392
4.0738e+06	0.303917
4.09732e+06	0.303914
4.12098e+06	0.303912
4.14477e+06	0.303909
4.16869e+06	0.303906
4.19276e+06	0.303903
4.21697e+06	0.3039
4.24131e+06	0.303898
4.2658e+06	0.303895
4.29042e+06	0.303892
4.31519e+06	0.30389
4.3401e+06	0.303887
4.36516e+06	0.303885
4.39036e+06	0.303882
4.4157e+06	0.30388
4.4412e+06	0.303877
4.46684e+06	0.303875
4.49262e+06	0.303872
4.51856e+06	0.30387
4.54465e+06	0.303868
4.57088e+06	0.303865
4.59727e+06	0.303863
4.62381e+06	0.303861
4.6505e+06	0.303858
4.67735e+06	0.303856
4.70435e+06	0.303854
4.73151e+06	0.303852
4.75883e+06	0.30385
4.7863e+06	0.303847
4.81393e+06	0.303845
4.84172e+06	0.303843
4.86968e+06	0.303841
4.89779e+06	0.303839
4.92606e+06	0.303837
4.9545e+06	0.303835
4.9831e+06	0.303833
5.01187e+06	0.303831
5.04081e+06	0.303829
5.06991e+06	0.303827
5.09918e+06	0.303826
5.12861e+06	0.303824
5.15822e+06	0.303822
5.188e+06	0.30382
5.21795e+06	0.303818
5.24807e+06	0.303817
5.27837e+06	0.303815
5.30884e+06	0.303813
5.33949e+06	0.303811
5.37032e+06	0.30381
5.40132e+06	0.303808
5.4325e+06	0.303806
5.46387e+06	0.303805
5.49541e+06	0.303803
5.52713e+06	0.303802
5.55904e+06	0.3038
5.59114e+06	0.303798
5.62341e+06	0.303797
5.65588e+06	0.303795
5.68853e+06	0.303794
5.72137e+06	0.303792
5.7544e+06	0.303791
5.78762e+06	0.303789
5.82103e+06	0.303788
5.85464e+06	0.303787
5.88844e+06	0.303785
5.92243e+06	0.303784
5.95662e+06	0.303782
5.99101e+06	0.303781
6.0256e+06	0.30378
6.06038e+06	0.303778
6.09537e+06	0.303777
6.13056e+06	0.303776
6.16595e+06	0.303774
6.20155e+06	0.303773
6.23735e+06	0.303772
6.27336e+06	0.303771
6.30957e+06	0.303769
6.346e+06	0.303768
6.38263e+06	0.303767
6.41948e+06	0.303766
6.45654e+06	0.303765
6.49382e+06	0.303764
6.53131e+06	0.303762
6.56901e+06	0.303761
6.60693e+06	0.30376
6.64508e+06	0.303759
6.68344e+06	0.303758
6.72202e+06	0.303757
6.76083e+06	0.303756
6.79986e+06	0.303755
6.83912e+06	0.303754
6.8786e+06	0.303753
6.91831e+06	0.303752
6.95825e+06	0.303751
6.99842e+06	0.30375
7.03882e+06	0.303749
7.07946e+06	0.303748
7.12033e+06	0.303747
7.16143e+06	0.303746
7.20278e+06	0.303745
7.24436e+06	0.303744
7.28618e+06	0.303743
7.32825e+06	0.303742
7.37055e+06	0.303741
7.4131e+06	0.30374
7.4559e+06	0.303739
7.49894e+06	0.303739
7.54223e+06	0.303738
7.58578e+06	0.303737
7.62957e+06	0.303736
7.67361e+06	0.303735
7.71792e+06	0.303734
7.76247e+06	0.303734
7.80728e+06	0.303733
7.85236e+06	0.303732
7.89769e+06	0.303731
7.94328e+06	0.30373
7.98914e+06	0.30373
8.03526e+06	0.303729
8.08165e+06	0.303728
8.12831e+06	0.303727
8.17523e+06	0.303727
8.22243e+06	0.303726
8.2699e+06	0.303725
8.31764e+06	0.303725
8.36566e+06	0.303724
8.41395e+06	0.303723
8.46253e+06	0.303723
8.51138e+06	0.303722
8.56052e+06	0.303721
8.60994e+06	0.303721
8.65964e+06	0.30372
8.70964e+06	0.303719
8.75992e+06	0.303719
8.81049e+06	0.303718
8.86135e+06	0.303717
8.91251e+06	0.303717
8.96396e+06	0.303716
9.01571e+06	0.303716
9.06776e+06	0.303715
9.12011e+06	0.303714
9.17276e+06	0.303714
9.22571e+06	0.303713
9.27897e+06	0.303713
9.33254e+06	0.303712
9.38642e+06	0.303712
9.44061e+06	0.303711
9.49511e+06	0.30371
9.54993e+06	0.30371
9.60506e+06	0.303709
9.66051e+06	0.303709
9.71628e+06	0.303708
9.77237e+06	0.303708
9.82879e+06	0.303707
9.88553e+06	0.303707
9.9426e+06	0.303706
1e+07	0.303706
