Stopping power dEdx from Ionisation for alpha Z = 2 in Water, process name: ionIoni
E [MeV]	dEdx [MeV/mm]
0.001	11.7661
0.00100577	11.8007
0.00101158	11.8354
0.00101742	11.8703
0.00102329	11.9052
0.0010292	11.9402
0.00103514	11.9753
0.00104112	12.0105
0.00104713	12.0459
0.00105317	12.0813
0.00105925	12.1169
0.00106537	12.1525
0.00107152	12.1883
0.00107771	12.2241
0.00108393	12.2601
0.00109018	12.2962
0.00109648	12.3324
0.00110281	12.3687
0.00110917	12.4051
0.00111558	12.4416
0.00112202	12.4782
0.0011285	12.515
0.00113501	12.5518
0.00114156	12.5888
0.00114815	12.6258
0.00115478	12.663
0.00116145	12.7003
0.00116815	12.7377
0.0011749	12.7752
0.00118168	12.8128
0.0011885	12.8506
0.00119536	12.8884
0.00120226	12.9264
0.00120921	12.9645
0.00121619	13.0026
0.00122321	13.041
0.00123027	13.0794
0.00123737	13.1179
0.00124451	13.1566
0.0012517	13.1953
0.00125893	13.2342
0.00126619	13.2732
0.0012735	13.3123
0.00128086	13.3516
0.00128825	13.3909
0.00129569	13.4304
0.00130317	13.47
0.00131069	13.5097
0.00131826	13.5495
0.00132587	13.5895
0.00133352	13.6295
0.00134122	13.6697
0.00134896	13.71
0.00135675	13.7505
0.00136458	13.791
0.00137246	13.8317
0.00138038	13.8725
0.00138835	13.9134
0.00139637	13.9544
0.00140443	13.9956
0.00141254	14.0369
0.00142069	14.0783
0.00142889	14.1198
0.00143714	14.1615
0.00144544	14.2033
0.00145378	14.2452
0.00146218	14.2872
0.00147062	14.3294
0.00147911	14.3717
0.00148765	14.4141
0.00149624	14.4566
0.00150487	14.4993
0.00151356	14.5421
0.0015223	14.585
0.00153109	14.6281
0.00153993	14.6713
0.00154882	14.7146
0.00155776	14.7581
0.00156675	14.8016
0.0015758	14.8453
0.00158489	14.8892
0.00159404	14.9332
0.00160325	14.9773
0.0016125	15.0215
0.00162181	15.0659
0.00163117	15.1104
0.00164059	15.155
0.00165006	15.1998
0.00165959	15.2447
0.00166917	15.2897
0.0016788	15.3349
0.0016885	15.3802
0.00169824	15.4257
0.00170805	15.4713
0.00171791	15.517
0.00172783	15.5629
0.0017378	15.6089
0.00174783	15.655
0.00175792	15.7013
0.00176807	15.7477
0.00177828	15.7943
0.00178855	15.8409
0.00179887	15.8878
0.00180926	15.9348
0.0018197	15.9819
0.00183021	16.0291
0.00184077	16.0766
0.0018514	16.1241
0.00186209	16.1718
0.00187284	16.2196
0.00188365	16.2676
0.00189452	16.3157
0.00190546	16.364
0.00191646	16.4124
0.00192752	16.461
0.00193865	16.5097
0.00194984	16.5585
0.0019611	16.6075
0.00197242	16.6567
0.00198381	16.706
0.00199526	16.7554
0.00200678	16.805
0.00201837	16.8547
0.00203002	16.9046
0.00204174	16.9547
0.00205353	17.0049
0.00206538	17.0552
0.0020773	17.1057
0.0020893	17.1564
0.00210136	17.2072
0.00211349	17.2581
0.00212569	17.3092
0.00213796	17.3605
0.0021503	17.4119
0.00216272	17.4635
0.0021752	17.5152
0.00218776	17.5671
0.00220039	17.6191
0.00221309	17.6713
0.00222587	17.7237
0.00223872	17.7762
0.00225165	17.8289
0.00226464	17.8817
0.00227772	17.9347
0.00229087	17.9879
0.00230409	18.0412
0.00231739	18.0946
0.00233077	18.1483
0.00234423	18.2021
0.00235776	18.256
0.00237137	18.3102
0.00238506	18.3644
0.00239883	18.4189
0.00241268	18.4735
0.00242661	18.5283
0.00244062	18.5832
0.00245471	18.6383
0.00246888	18.6936
0.00248313	18.7491
0.00249747	18.8047
0.00251189	18.8604
0.00252639	18.9164
0.00254097	18.9725
0.00255564	19.0288
0.0025704	19.0853
0.00258523	19.1419
0.00260016	19.1987
0.00261517	19.2556
0.00263027	19.3128
0.00264545	19.3701
0.00266073	19.4276
0.00267609	19.4853
0.00269153	19.5431
0.00270707	19.6011
0.0027227	19.6593
0.00273842	19.7177
0.00275423	19.7762
0.00277013	19.8349
0.00278612	19.8938
0.00280221	19.9529
0.00281838	20.0121
0.00283465	20.0716
0.00285102	20.1312
0.00286748	20.191
0.00288403	20.2509
0.00290068	20.3111
0.00291743	20.3714
0.00293427	20.4319
0.00295121	20.4926
0.00296825	20.5535
0.00298538	20.6146
0.00300262	20.6759
0.00301995	20.7373
0.00303739	20.7989
0.00305492	20.8607
0.00307256	20.9227
0.0030903	20.9849
0.00310814	21.0473
0.00312608	21.1099
0.00314413	21.1726
0.00316228	21.2356
0.00318053	21.2987
0.0031989	21.362
0.00321736	21.4255
0.00323594	21.4893
0.00325462	21.5532
0.00327341	21.6173
0.0032923	21.6815
0.00331131	21.746
0.00333043	21.8107
0.00334965	21.8756
0.00336899	21.9407
0.00338844	22.0059
0.003408	22.0714
0.00342768	22.1371
0.00344747	22.203
0.00346737	22.269
0.00348739	22.3353
0.00350752	22.4018
0.00352777	22.4684
0.00354813	22.5353
0.00356862	22.6024
0.00358922	22.6697
0.00360994	22.7371
0.00363078	22.8048
0.00365174	22.8727
0.00367282	22.9408
0.00369403	23.0091
0.00371535	23.0776
0.0037368	23.1464
0.00375837	23.2153
0.00378007	23.2844
0.00380189	23.3538
0.00382384	23.4233
0.00384592	23.4931
0.00386812	23.5631
0.00389045	23.6333
0.00391291	23.7037
0.0039355	23.7743
0.00395822	23.8452
0.00398107	23.9162
0.00400405	23.9816
0.00402717	24.0316
0.00405042	24.1034
0.0040738	24.1754
0.00409732	24.2476
0.00412098	24.32
0.00414477	24.3926
0.00416869	24.4655
0.00419276	24.5386
0.00421697	24.6119
0.00424131	24.6854
0.0042658	24.7592
0.00429042	24.8332
0.00431519	24.9073
0.0043401	24.9818
0.00436516	25.0564
0.00439036	25.1313
0.0044157	25.2064
0.0044412	25.2817
0.00446684	25.3573
0.00449262	25.433
0.00451856	25.5091
0.00454465	25.5853
0.00457088	25.6618
0.00459727	25.7385
0.00462381	25.8154
0.0046505	25.8926
0.00467735	25.97
0.00470435	26.0476
0.00473151	26.1255
0.00475883	26.2036
0.0047863	26.2819
0.00481393	26.3605
0.00484172	26.4393
0.00486968	26.5184
0.00489779	26.5977
0.00492606	26.6772
0.0049545	26.757
0.0049831	26.837
0.00501187	26.9173
0.00504081	26.9978
0.00506991	27.0785
0.00509918	27.1595
0.00512861	27.2408
0.00515822	27.3223
0.005188	27.404
0.00521795	27.486
0.00524807	27.5682
0.00527837	27.6507
0.00530884	27.7335
0.00533949	27.8164
0.00537032	27.8997
0.00540132	27.9832
0.0054325	28.0669
0.00546387	28.1509
0.00549541	28.2352
0.00552713	28.3197
0.00555904	28.4044
0.00559114	28.4895
0.00562341	28.5748
0.00565588	28.6603
0.00568853	28.7461
0.00572137	28.8322
0.0057544	28.9185
0.00578762	29.0051
0.00582103	29.0919
0.00585464	29.1791
0.00588844	29.2664
0.00592243	29.3541
0.00595662	29.442
0.00599101	29.5302
0.0060256	29.6186
0.00606038	29.7074
0.00609537	29.7963
0.00613056	29.8856
0.00616595	29.9751
0.00620155	30.0649
0.00623735	30.155
0.00627336	30.2454
0.00630957	30.336
0.006346	30.4269
0.00638263	30.5181
0.00641948	30.6096
0.00645654	30.7013
0.00649382	30.7933
0.00653131	30.8856
0.00656901	30.9782
0.00660693	31.0711
0.00664508	31.1642
0.00668344	31.2577
0.00672202	31.3514
0.00676083	31.4454
0.00679986	31.5397
0.00683912	31.6342
0.0068786	31.7291
0.00691831	31.8243
0.00695825	31.9197
0.00699842	32.0154
0.00703882	32.1115
0.00707946	32.2078
0.00712033	32.3044
0.00716143	32.4013
0.00720278	32.4985
0.00724436	32.596
0.00728618	32.6938
0.00732825	32.7919
0.00737055	32.8903
0.0074131	32.989
0.0074559	33.088
0.00749894	33.1873
0.00754223	33.2869
0.00758578	33.3868
0.00762957	33.4871
0.00767361	33.5876
0.00771792	33.6884
0.00776247	33.7896
0.00780728	33.891
0.00785236	33.9928
0.00789769	34.0948
0.00794328	34.1972
0.00798914	34.2999
0.00803526	34.4029
0.00808165	34.5062
0.00812831	34.6099
0.00817523	34.7138
0.00822243	34.8181
0.0082699	34.9227
0.00831764	35.0276
0.00836566	35.1328
0.00841395	35.2384
0.00846253	35.3442
0.00851138	35.4504
0.00856052	35.557
0.00860994	35.6638
0.00865964	35.771
0.00870964	35.8785
0.00875992	35.9863
0.00881049	36.0945
0.00886135	36.203
0.00891251	36.3118
0.00896396	36.421
0.00901571	36.5305
0.00906776	36.6403
0.00912011	36.7505
0.00917276	36.861
0.00922571	36.9718
0.00927897	37.083
0.00933254	37.1945
0.00938642	37.3064
0.00944061	37.4186
0.00949511	37.5311
0.00954993	37.644
0.00960506	37.7572
0.00966051	37.8708
0.00971628	37.9848
0.00977237	38.099
0.00982879	38.2137
0.00988553	38.3286
0.0099426	38.444
0.01	38.5597
0.0100577	38.6757
0.0101158	38.7921
0.0101742	38.9089
0.0102329	39.026
0.010292	39.1434
0.0103514	39.2613
0.0104112	39.3794
0.0104713	39.498
0.0105317	39.6169
0.0105925	39.7362
0.0106537	39.8558
0.0107152	39.9758
0.0107771	40.0962
0.0108393	40.217
0.0109018	40.3381
0.0109648	40.4596
0.0110281	40.5814
0.0110917	40.7037
0.0111558	40.8263
0.0112202	40.9493
0.011285	41.0726
0.0113501	41.1964
0.0114156	41.3205
0.0114815	41.445
0.0115478	41.5698
0.0116145	41.6951
0.0116815	41.8208
0.011749	41.9468
0.0118168	42.0732
0.011885	42.2
0.0119536	42.3272
0.0120226	42.4548
0.0120921	42.5828
0.0121619	42.7111
0.0122321	42.8399
0.0123027	42.969
0.0123737	43.0986
0.0124451	43.2285
0.012517	43.3589
0.0125893	43.4896
0.0126619	43.6208
0.012735	43.7523
0.0128086	43.8843
0.0128825	44.0166
0.0129569	44.1494
0.0130317	44.2825
0.0131069	44.4161
0.0131826	44.5501
0.0132587	44.6845
0.0133352	44.8193
0.0134122	44.9545
0.0134896	45.0902
0.0135675	45.2262
0.0136458	45.3627
0.0137246	45.4996
0.0138038	45.6369
0.0138835	45.7746
0.0139637	45.9128
0.0140443	46.0513
0.0141254	46.1903
0.0142069	46.3298
0.0142889	46.4696
0.0143714	46.6099
0.0144544	46.7506
0.0145378	46.8917
0.0146218	47.0333
0.0147062	47.1753
0.0147911	47.3178
0.0148765	47.4607
0.0149624	47.604
0.0150487	47.7477
0.0151356	47.8919
0.015223	48.0366
0.0153109	48.1817
0.0153993	48.3272
0.0154882	48.4732
0.0155776	48.6196
0.0156675	48.7665
0.015758	48.9138
0.0158489	49.0616
0.0159404	49.2098
0.0160325	49.3585
0.016125	49.5076
0.0162181	49.6572
0.0163117	49.8073
0.0164059	49.9578
0.0165006	50.1087
0.0165959	50.2602
0.0166917	50.4121
0.016788	50.5644
0.016885	50.7173
0.0169824	50.8706
0.0170805	51.0244
0.0171791	51.1786
0.0172783	51.3333
0.017378	51.4885
0.0174783	51.6442
0.0175792	51.8003
0.0176807	51.9569
0.0177828	52.114
0.0178855	52.2716
0.0179887	52.4297
0.0180926	52.5882
0.018197	52.7473
0.0183021	52.9068
0.0184077	53.0668
0.018514	53.2273
0.0186209	53.3883
0.0187284	53.5498
0.0188365	53.7118
0.0189452	53.8742
0.0190546	54.0372
0.0191646	54.2007
0.0192752	54.3647
0.0193865	54.5291
0.0194984	54.6941
0.019611	54.8596
0.0197242	55.0256
0.0198381	55.1921
0.0199526	55.3591
0.0200678	55.5266
0.0201837	55.6947
0.0203002	55.8632
0.0204174	56.0323
0.0205353	56.2019
0.0206538	56.372
0.020773	56.5426
0.020893	56.7137
0.0210136	56.8854
0.0211349	57.0576
0.0212569	57.2303
0.0213796	57.4036
0.021503	57.5774
0.0216272	57.7517
0.021752	57.9265
0.0218776	58.1019
0.0220039	58.2778
0.0221309	58.4543
0.0222587	58.6312
0.0223872	58.8088
0.0225165	58.9869
0.0226464	59.1655
0.0227772	59.3446
0.0229087	59.5244
0.0230409	59.7046
0.0231739	59.8854
0.0233077	60.0668
0.0234423	60.2487
0.0235776	60.4312
0.0237137	60.6143
0.0238506	60.7978
0.0239883	60.982
0.0241268	61.1667
0.0242661	61.352
0.0244062	61.5379
0.0245471	61.7243
0.0246888	61.9113
0.0248313	62.0988
0.0249747	62.2869
0.0251189	62.4756
0.0252639	62.6649
0.0254097	62.8548
0.0255564	63.0452
0.025704	63.2362
0.0258523	63.4278
0.0260016	63.62
0.0261517	63.8128
0.0263027	64.0061
0.0264545	64.2001
0.0266073	64.3946
0.0267609	64.5898
0.0269153	64.7855
0.0270707	64.9818
0.027227	65.1787
0.0273842	65.3762
0.0275423	65.5744
0.0277013	65.7731
0.0278612	65.9724
0.0280221	66.1724
0.0281838	66.3729
0.0283465	66.5741
0.0285102	66.7758
0.0286748	66.9782
0.0288403	67.1812
0.0290068	67.3848
0.0291743	67.5891
0.0293427	67.7939
0.0295121	67.9994
0.0296825	68.2055
0.0298538	68.4122
0.0300262	68.6196
0.0301995	68.8276
0.0303739	69.0362
0.0305492	69.2455
0.0307256	69.4553
0.030903	69.6659
0.0310814	69.877
0.0312608	70.0888
0.0314413	70.3013
0.0316228	70.5144
0.0318053	70.7281
0.031989	70.9425
0.0321736	71.1576
0.0323594	71.3732
0.0325462	71.5896
0.0327341	71.8066
0.032923	72.0242
0.0331131	72.2426
0.0333043	72.4615
0.0334965	72.6812
0.0336899	72.9015
0.0338844	73.1224
0.03408	73.3441
0.0342768	73.5664
0.0344747	73.7894
0.0346737	74.013
0.0348739	74.2374
0.0350752	74.4624
0.0352777	74.6881
0.0354813	74.9144
0.0356862	75.1415
0.0358922	75.3692
0.0360994	75.5976
0.0363078	75.8268
0.0365174	76.0566
0.0367282	76.2871
0.0369403	76.5182
0.0371535	76.7501
0.037368	76.9827
0.0375837	77.216
0.0378007	77.45
0.0380189	77.6847
0.0382384	77.9201
0.0384592	78.1562
0.0386812	78.393
0.0389045	78.6305
0.0391291	78.8688
0.039355	79.1077
0.0395822	79.3474
0.0398107	79.5878
0.0400405	79.8289
0.0402717	80.0708
0.0405042	80.3133
0.040738	80.5566
0.0409732	80.8006
0.0412098	81.0454
0.0414477	81.2909
0.0416869	81.5371
0.0419276	81.784
0.0421697	82.0317
0.0424131	82.2802
0.042658	82.5293
0.0429042	82.7793
0.0431519	83.0299
0.043401	83.2813
0.0436516	83.5335
0.0439036	83.7864
0.044157	84.0401
0.044412	84.2945
0.0446684	84.5497
0.0449262	84.8056
0.0451856	85.0623
0.0454465	85.3198
0.0457088	85.578
0.0459727	85.837
0.0462381	86.0968
0.046505	86.3573
0.0467735	86.6186
0.0470435	86.8807
0.0473151	87.1436
0.0475883	87.4072
0.047863	87.6716
0.0481393	87.9368
0.0484172	88.2028
0.0486968	88.4696
0.0489779	88.7371
0.0492606	89.0055
0.049545	89.2746
0.049831	89.5445
0.0501187	89.8153
0.0504081	90.0868
0.0506991	90.3591
0.0509918	90.6322
0.0512861	90.9062
0.0515822	91.1809
0.05188	91.4565
0.0521795	91.7328
0.0524807	92.01
0.0527837	92.2879
0.0530884	92.5667
0.0533949	92.8463
0.0537032	93.1267
0.0540132	93.408
0.054325	93.69
0.0546387	93.9729
0.0549541	94.2566
0.0552713	94.5412
0.0555904	94.8265
0.0559114	95.1127
0.0562341	95.3998
0.0565588	95.6876
0.0568853	95.9763
0.0572137	96.2659
0.057544	96.5562
0.0578762	96.8474
0.0582103	97.1395
0.0585464	97.4324
0.0588844	97.7262
0.0592243	98.0208
0.0595662	98.3162
0.0599101	98.6125
0.060256	98.9097
0.0606038	99.2077
0.0609537	99.5065
0.0613056	99.8063
0.0616595	100.107
0.0620155	100.408
0.0623735	100.711
0.0627336	101.014
0.0630957	101.318
0.06346	101.623
0.0638263	101.929
0.0641948	102.235
0.0645654	102.543
0.0649382	102.851
0.0653131	103.16
0.0656901	103.471
0.0660693	103.782
0.0664508	104.093
0.0668344	104.406
0.0672202	104.72
0.0676083	105.035
0.0679986	105.35
0.0683912	105.666
0.068786	105.984
0.0691831	106.302
0.0695825	106.621
0.0699842	106.941
0.0703882	107.262
0.0707946	107.583
0.0712033	107.906
0.0716143	108.229
0.0720278	108.554
0.0724436	108.879
0.0728618	109.205
0.0732825	109.532
0.0737055	109.86
0.074131	110.189
0.074559	110.519
0.0749894	110.85
0.0754223	111.182
0.0758578	111.514
0.0762957	111.848
0.0767361	112.182
0.0771792	112.518
0.0776247	112.854
0.0780728	113.191
0.0785236	113.529
0.0789769	113.868
0.0794328	114.208
0.0798914	114.549
0.0803526	114.891
0.0808165	115.233
0.0812831	115.577
0.0817523	115.922
0.0822243	116.267
0.082699	116.614
0.0831764	116.961
0.0836566	117.309
0.0841395	117.658
0.0846253	118.009
0.0851138	118.36
0.0856052	118.712
0.0860994	119.065
0.0865964	119.419
0.0870964	119.773
0.0875992	120.129
0.0881049	120.486
0.0886135	120.844
0.0891251	121.202
0.0896396	121.562
0.0901571	121.922
0.0906776	122.284
0.0912011	122.646
0.0917276	123.009
0.0922571	123.373
0.0927897	123.739
0.0933254	124.105
0.0938642	124.472
0.0944061	124.84
0.0949511	125.209
0.0954993	125.579
0.0960506	125.949
0.0966051	126.321
0.0971628	126.694
0.0977237	127.067
0.0982879	127.442
0.0988553	127.818
0.099426	128.194
0.1	128.572
0.100577	128.95
0.101158	129.329
0.101742	129.709
0.102329	130.091
0.10292	130.473
0.103514	130.856
0.104112	131.24
0.104713	131.625
0.105317	132.011
0.105925	132.398
0.106537	132.785
0.107152	133.174
0.107771	133.564
0.108393	133.954
0.109018	134.346
0.109648	134.738
0.110281	135.132
0.110917	135.526
0.111558	135.921
0.112202	136.317
0.11285	136.715
0.113501	137.113
0.114156	137.512
0.114815	137.911
0.115478	138.312
0.116145	138.714
0.116815	139.117
0.11749	139.52
0.118168	139.925
0.11885	140.33
0.119536	140.736
0.120226	141.144
0.120921	141.552
0.121619	141.961
0.122321	142.371
0.123027	142.782
0.123737	143.193
0.124451	143.606
0.12517	144.02
0.125893	144.434
0.126619	144.85
0.12735	145.266
0.128086	145.683
0.128825	146.101
0.129569	146.52
0.130317	146.94
0.131069	147.36
0.131826	147.782
0.132587	148.204
0.133352	148.627
0.134122	149.052
0.134896	149.477
0.135675	149.902
0.136458	150.329
0.137246	150.757
0.138038	151.185
0.138835	151.614
0.139637	152.044
0.140443	152.475
0.141254	152.907
0.142069	153.34
0.142889	153.773
0.143714	154.207
0.144544	154.642
0.145378	155.078
0.146218	155.515
0.147062	155.952
0.147911	156.39
0.148765	156.829
0.149624	157.269
0.150487	157.71
0.151356	158.151
0.15223	158.593
0.153109	159.036
0.153993	159.48
0.154882	159.924
0.155776	160.369
0.156675	160.815
0.15758	161.262
0.158489	161.709
0.159404	162.157
0.160325	162.606
0.16125	163.055
0.162181	163.506
0.163117	163.956
0.164059	164.408
0.165006	164.86
0.165959	165.313
0.166917	165.767
0.16788	166.221
0.16885	166.676
0.169824	167.132
0.170805	167.588
0.171791	168.045
0.172783	168.502
0.17378	168.96
0.174783	169.419
0.175792	169.878
0.176807	170.338
0.177828	170.798
0.178855	171.259
0.179887	171.721
0.180926	172.183
0.18197	172.646
0.183021	173.109
0.184077	173.573
0.18514	174.037
0.186209	174.501
0.187284	174.967
0.188365	175.432
0.189452	175.899
0.190546	176.365
0.191646	176.832
0.192752	177.3
0.193865	177.768
0.194984	178.236
0.19611	178.705
0.197242	179.174
0.198381	179.644
0.199526	180.114
0.200678	180.584
0.201837	181.054
0.203002	181.525
0.204174	181.997
0.205353	182.468
0.206538	182.94
0.20773	183.412
0.20893	183.885
0.210136	184.357
0.211349	184.83
0.212569	185.303
0.213796	185.777
0.21503	186.25
0.216272	186.724
0.21752	187.198
0.218776	187.672
0.220039	188.146
0.221309	188.621
0.222587	189.095
0.223872	189.57
0.225165	190.044
0.226464	190.519
0.227772	190.994
0.229087	191.468
0.230409	191.943
0.231739	192.418
0.233077	192.893
0.234423	193.367
0.235776	193.842
0.237137	194.316
0.238506	194.791
0.239883	195.265
0.241268	195.739
0.242661	196.213
0.244062	196.687
0.245471	197.161
0.246888	197.634
0.248313	198.108
0.249747	198.581
0.251189	199.054
0.252639	199.526
0.254097	199.998
0.255564	200.47
0.25704	200.941
0.258523	201.413
0.260016	201.883
0.261517	202.354
0.263027	202.824
0.264545	203.293
0.266073	203.762
0.267609	204.23
0.269153	204.698
0.270707	205.166
0.27227	205.632
0.273842	206.099
0.275423	206.564
0.277013	207.029
0.278612	207.494
0.280221	207.957
0.281838	208.42
0.283465	208.882
0.285102	209.344
0.286748	209.804
0.288403	210.264
0.290068	210.723
0.291743	211.181
0.293427	211.638
0.295121	212.095
0.296825	212.55
0.298538	213.004
0.300262	213.458
0.301995	213.91
0.303739	214.361
0.305492	214.812
0.307256	215.261
0.30903	215.709
0.310814	216.155
0.312608	216.601
0.314413	217.045
0.316228	217.489
0.318053	217.93
0.31989	218.371
0.321736	218.81
0.323594	219.248
0.325462	219.685
0.327341	220.12
0.32923	220.553
0.331131	220.985
0.333043	221.416
0.334965	221.845
0.336899	222.272
0.338844	222.698
0.3408	223.122
0.342768	223.545
0.344747	223.965
0.346737	224.385
0.348739	224.802
0.350752	225.217
0.352777	225.631
0.354813	226.043
0.356862	226.452
0.358922	226.86
0.360994	227.266
0.363078	227.67
0.365174	228.072
0.367282	228.472
0.369403	228.869
0.371535	229.265
0.37368	229.658
0.375837	230.049
0.378007	230.438
0.380189	230.825
0.382384	231.209
0.384592	231.591
0.386812	231.971
0.389045	232.348
0.391291	232.723
0.39355	233.095
0.395822	233.464
0.398107	233.831
0.400405	234.196
0.402717	234.558
0.405042	234.917
0.40738	235.273
0.409732	235.627
0.412098	235.978
0.414477	236.326
0.416869	236.672
0.419276	237.014
0.421697	237.353
0.424131	237.69
0.42658	238.023
0.429042	238.354
0.431519	238.681
0.43401	239.005
0.436516	239.326
0.439036	239.644
0.44157	239.959
0.44412	240.271
0.446684	240.579
0.449262	240.884
0.451856	241.185
0.454465	241.483
0.457088	241.778
0.459727	242.069
0.462381	242.356
0.46505	242.64
0.467735	242.921
0.470435	243.198
0.473151	243.471
0.475883	243.74
0.47863	244.006
0.481393	244.268
0.484172	244.526
0.486968	244.781
0.489779	245.031
0.492606	245.278
0.49545	245.52
0.49831	245.759
0.501187	245.994
0.504081	246.224
0.506991	246.451
0.509918	246.673
0.512861	246.891
0.515822	247.105
0.5188	247.315
0.521795	247.521
0.524807	247.722
0.527837	247.919
0.530884	248.112
0.533949	248.3
0.537032	248.484
0.540132	248.663
0.54325	248.838
0.546387	249.008
0.549541	249.174
0.552713	249.335
0.555904	249.492
0.559114	249.644
0.562341	249.791
0.565588	249.934
0.568853	250.072
0.572137	250.205
0.57544	250.333
0.578762	250.456
0.582103	250.575
0.585464	250.689
0.588844	250.798
0.592243	250.902
0.595662	251.001
0.599101	251.095
0.60256	251.184
0.606038	251.268
0.609537	251.347
0.613056	251.421
0.616595	251.49
0.620155	251.554
0.623735	251.612
0.627336	251.665
0.630957	251.714
0.6346	251.757
0.638263	251.794
0.641948	251.827
0.645654	251.854
0.649382	251.876
0.653131	251.893
0.656901	251.904
0.660693	251.91
0.664508	251.911
0.668344	251.906
0.672202	251.896
0.676083	251.88
0.679986	251.859
0.683912	251.833
0.68786	251.801
0.691831	251.763
0.695825	251.72
0.699842	251.672
0.703882	251.618
0.707946	251.559
0.712033	251.494
0.716143	251.423
0.720278	251.347
0.724436	251.266
0.728618	251.179
0.732825	251.086
0.737055	250.988
0.74131	250.884
0.74559	250.775
0.749894	250.66
0.754223	250.539
0.758578	250.413
0.762957	250.281
0.767361	250.144
0.771792	250.001
0.776247	249.853
0.780728	249.698
0.785236	249.539
0.789769	249.373
0.794328	249.202
0.798914	249.026
0.803526	248.844
0.808165	248.656
0.812831	248.463
0.817523	248.264
0.822243	248.06
0.82699	247.85
0.831764	247.634
0.836566	247.413
0.841395	247.187
0.846253	246.954
0.851138	246.717
0.856052	246.474
0.860994	246.225
0.865964	245.971
0.870964	245.712
0.875992	245.447
0.881049	245.176
0.886135	244.901
0.891251	244.619
0.896396	244.333
0.901571	244.041
0.906776	243.744
0.912011	243.441
0.917276	243.133
0.922571	242.82
0.927897	242.501
0.933254	242.178
0.938642	241.849
0.944061	241.515
0.949511	241.175
0.954993	240.831
0.960506	240.482
0.966051	240.127
0.971628	239.767
0.977237	239.402
0.982879	239.033
0.988553	238.658
0.99426	238.278
1	237.894
1.00577	237.504
1.01158	237.11
1.01742	236.711
1.02329	236.307
1.0292	235.898
1.03514	235.485
1.04112	235.067
1.04713	234.644
1.05317	234.216
1.05925	233.784
1.06537	233.348
1.07152	232.907
1.07771	232.461
1.08393	232.011
1.09018	231.557
1.09648	231.098
1.10281	230.635
1.10917	230.168
1.11558	229.696
1.12202	229.22
1.1285	228.74
1.13501	228.256
1.14156	227.768
1.14815	227.276
1.15478	226.78
1.16145	226.28
1.16815	225.776
1.1749	225.268
1.18168	224.756
1.1885	224.241
1.19536	223.722
1.20226	223.199
1.20921	222.673
1.21619	222.143
1.22321	221.609
1.23027	221.072
1.23737	220.532
1.24451	219.988
1.2517	219.441
1.25893	218.891
1.26619	218.337
1.2735	217.781
1.28086	217.221
1.28825	216.658
1.29569	216.092
1.30317	215.523
1.31069	214.951
1.31826	214.376
1.32587	213.798
1.33352	213.218
1.34122	212.635
1.34896	212.049
1.35675	211.461
1.36458	210.87
1.37246	210.277
1.38038	209.681
1.38835	209.082
1.39637	208.482
1.40443	207.879
1.41254	207.274
1.42069	206.666
1.42889	206.057
1.43714	205.445
1.44544	204.832
1.45378	204.216
1.46218	203.598
1.47062	202.979
1.47911	202.358
1.48765	201.735
1.49624	201.11
1.50487	200.484
1.51356	199.856
1.5223	199.226
1.53109	198.595
1.53993	197.963
1.54882	197.329
1.55776	196.694
1.56675	196.057
1.5758	195.42
1.58489	194.781
1.59404	194.141
1.60325	193.5
1.6125	192.858
1.62181	192.214
1.63117	191.57
1.64059	190.925
1.65006	190.28
1.65959	189.633
1.66917	188.986
1.6788	188.338
1.6885	187.69
1.69824	187.041
1.70805	186.391
1.71791	185.741
1.72783	185.09
1.7378	184.439
1.74783	183.788
1.75792	183.137
1.76807	182.485
1.77828	181.833
1.78855	181.181
1.79887	180.529
1.80926	179.877
1.8197	179.224
1.83021	178.572
1.84077	177.92
1.8514	177.268
1.86209	176.616
1.87284	175.965
1.88365	175.314
1.89452	174.663
1.90546	174.012
1.91646	173.362
1.92752	172.712
1.93865	172.063
1.94984	171.414
1.9611	170.766
1.97242	170.118
1.98381	169.471
1.99526	168.825
2.00678	168.179
2.01837	167.534
2.03002	166.89
2.04174	166.247
2.05353	165.604
2.06538	164.963
2.0773	164.322
2.0893	163.683
2.10136	163.044
2.11349	162.407
2.12569	161.77
2.13796	161.135
2.1503	160.501
2.16272	159.868
2.1752	159.236
2.18776	158.605
2.20039	157.976
2.21309	157.348
2.22587	156.721
2.23872	156.095
2.25165	155.471
2.26464	154.849
2.27772	154.228
2.29087	153.608
2.30409	152.99
2.31739	152.373
2.33077	151.758
2.34423	151.144
2.35776	150.532
2.37137	149.922
2.38506	149.313
2.39883	148.706
2.41268	148.1
2.42661	147.496
2.44062	146.894
2.45471	146.294
2.46888	145.696
2.48313	145.099
2.49747	144.504
2.51189	143.911
2.52639	143.319
2.54097	142.73
2.55564	142.142
2.5704	141.557
2.58523	140.973
2.60016	140.391
2.61517	139.811
2.63027	139.233
2.64545	138.657
2.66073	138.083
2.67609	137.511
2.69153	136.941
2.70707	136.373
2.7227	135.807
2.73842	135.243
2.75423	134.681
2.77013	134.122
2.78612	133.564
2.80221	133.008
2.81838	132.455
2.83465	131.903
2.85102	131.354
2.86748	130.806
2.88403	130.261
2.90068	129.718
2.91743	129.177
2.93427	128.639
2.95121	128.102
2.96825	127.568
2.98538	127.035
3.00262	126.505
3.01995	125.977
3.03739	125.452
3.05492	124.928
3.07256	124.407
3.0903	123.887
3.10814	123.37
3.12608	122.856
3.14413	122.343
3.16228	121.832
3.18053	121.324
3.1989	120.818
3.21736	120.314
3.23594	119.812
3.25462	119.313
3.27341	118.816
3.2923	118.32
3.31131	117.828
3.33043	117.337
3.34965	116.848
3.36899	116.362
3.38844	115.878
3.408	115.396
3.42768	114.916
3.44747	114.438
3.46737	113.963
3.48739	113.489
3.50752	113.018
3.52777	112.549
3.54813	112.082
3.56862	111.618
3.58922	111.155
3.60994	110.695
3.63078	110.237
3.65174	109.781
3.67282	109.327
3.69403	108.875
3.71535	108.425
3.7368	107.977
3.75837	107.532
3.78007	107.088
3.80189	106.647
3.82384	106.208
3.84592	105.771
3.86812	105.336
3.89045	104.903
3.91291	104.472
3.9355	104.043
3.95822	103.616
3.98107	103.191
4.00405	102.768
4.02717	102.347
4.05042	101.929
4.0738	101.512
4.09732	101.097
4.12098	100.684
4.14477	100.273
4.16869	99.8645
4.19276	99.4575
4.21697	99.0526
4.24131	98.6496
4.2658	98.2485
4.29042	97.8494
4.31519	97.4521
4.3401	97.0568
4.36516	96.6634
4.39036	96.2718
4.4157	95.8821
4.4412	95.4943
4.46684	95.1084
4.49262	94.7243
4.51856	94.342
4.54465	93.9616
4.57088	93.583
4.59727	93.2062
4.62381	92.8312
4.6505	92.458
4.67735	92.0866
4.70435	91.7169
4.73151	91.3491
4.75883	90.9829
4.7863	90.6185
4.81393	90.2559
4.84172	89.8949
4.86968	89.5357
4.89779	89.1781
4.92606	88.8223
4.9545	88.4681
4.9831	88.1157
5.01187	87.7648
5.04081	87.4157
5.06991	87.0681
5.09918	86.7222
5.12861	86.3794
5.15822	86.0366
5.188	85.6955
5.21795	85.3559
5.24807	85.0179
5.27837	84.6815
5.30884	84.3466
5.33949	84.0134
5.37032	83.6816
5.40132	83.3514
5.4325	83.0227
5.46387	82.6956
5.49541	82.3699
5.52713	82.0458
5.55904	81.7231
5.59114	81.4019
5.62341	81.0822
5.65588	80.7639
5.68853	80.4471
5.72137	80.1318
5.7544	79.8178
5.78762	79.5053
5.82103	79.1942
5.85464	78.8844
5.88844	78.5761
5.92243	78.2692
5.95662	77.9636
5.99101	77.6594
6.0256	77.3565
6.06038	77.055
6.09537	76.7549
6.13056	76.456
6.16595	76.1585
6.20155	75.8623
6.23735	75.5673
6.27336	75.2737
6.30957	74.9814
6.346	74.6903
6.38263	74.4005
6.41948	74.1119
6.45654	73.8246
6.49382	73.5386
6.53131	73.2538
6.56901	72.9702
6.60693	72.6878
6.64508	72.4066
6.68344	72.1266
6.72202	71.8478
6.76083	71.5702
6.79986	71.2938
6.83912	71.0185
6.8786	70.7444
6.91831	70.4714
6.95825	70.1996
6.99842	69.929
7.03882	69.6594
7.07946	69.391
7.12033	69.1237
7.16143	68.8575
7.20278	68.5924
7.24436	68.3284
7.28618	68.0654
7.32825	67.8036
7.37055	67.5428
7.4131	67.2831
7.4559	67.0245
7.49894	66.7669
7.54223	66.5103
7.58578	66.2548
7.62957	66.0003
7.67361	65.7468
7.71792	65.4944
7.76247	65.2429
7.80728	64.9925
7.85236	64.7431
7.89769	64.4946
7.94328	64.2472
7.98914	63.9795
8.03526	63.712
8.08165	63.4454
8.12831	63.1798
8.17523	62.9151
8.22243	62.6513
8.2699	62.3938
8.31764	62.1319
8.36566	61.8709
8.41395	61.6108
8.46253	61.3516
8.51138	61.0932
8.56052	60.8358
8.60994	60.5793
8.65964	60.3236
8.70964	60.0689
8.75992	59.815
8.81049	59.562
8.86135	59.3214
8.91251	59.0702
8.96396	58.8199
9.01571	58.5704
9.06776	58.3218
9.12011	58.0741
9.17276	57.8273
9.22571	57.5814
9.27897	57.3363
9.33254	57.0921
9.38642	56.8487
9.44061	56.6063
9.49511	56.3647
9.54993	56.1239
9.60506	55.8841
9.66051	55.6451
9.71628	55.4069
9.77237	55.1696
9.82879	54.9332
9.88553	54.6976
9.9426	54.4629
10	54.0686
10.0577	53.8477
10.1158	53.6133
10.1742	53.3797
10.2329	53.147
10.292	52.9151
10.3514	52.6841
10.4112	52.4539
10.4713	52.2246
10.5317	51.9962
10.5925	51.7686
10.6537	51.5418
10.7152	51.3159
10.7771	51.0908
10.8393	50.8666
10.9018	50.6432
10.9648	50.4206
11.0281	50.1988
11.0917	49.9779
11.1558	49.7578
11.2202	49.5386
11.285	49.3201
11.3501	49.1025
11.4156	48.8857
11.4815	48.6697
11.5478	48.4545
11.6145	48.2402
11.6815	48.0267
11.749	47.8139
11.8168	47.602
11.885	47.4349
11.9536	47.2244
12.0226	47.0147
12.0921	46.8057
12.1619	46.5976
12.2321	46.3903
12.3027	46.1838
12.3737	45.9781
12.4451	45.7731
12.517	45.5682
12.5893	45.3648
12.6619	45.1622
12.735	44.9603
12.8086	44.7593
12.8825	44.559
12.9569	44.3595
13.0317	44.1608
13.1069	43.9629
13.1826	43.7658
13.2587	43.5694
13.3352	43.3738
13.4122	43.1789
13.4896	42.9849
13.5675	42.7916
13.6458	42.599
13.7246	42.4072
13.8038	42.2162
13.8835	42.026
13.9637	41.8369
14.0443	41.6545
14.1254	41.4728
14.2069	41.2918
14.2889	41.1114
14.3714	40.9316
14.4544	40.7525
14.5378	40.5741
14.6218	40.3962
14.7062	40.2191
14.7911	40.0426
14.8765	39.8667
14.9624	39.6915
15.0487	39.517
15.1356	39.3431
15.223	39.1698
15.3109	38.9972
15.3993	38.8252
15.4882	38.6539
15.5776	38.4832
15.6675	38.3131
15.758	38.1437
15.8489	37.975
15.9404	37.8069
16.0325	37.6394
16.125	37.4726
16.2181	37.3064
16.3117	37.1408
16.4059	36.9759
16.5006	36.8117
16.5959	36.648
16.6917	36.485
16.788	36.3227
16.885	36.1609
16.9824	35.9999
17.0805	35.8394
17.1791	35.6796
17.2783	35.5204
17.378	35.3618
17.4783	35.2039
17.5792	35.0466
17.6807	34.8899
17.7828	34.7687
17.8855	34.6129
17.9887	34.4577
18.0926	34.3031
18.197	34.1492
18.3021	33.9959
18.4077	33.8432
18.514	33.6911
18.6209	33.5397
18.7284	33.3888
18.8365	33.2386
18.9452	33.089
19.0546	32.94
19.1646	32.7917
19.2752	32.6439
19.3865	32.4968
19.4984	32.3502
19.611	32.2043
19.7242	32.059
19.8381	31.9142
19.9526	31.7701
20.0678	31.6266
20.1837	31.4837
20.3002	31.3413
20.4174	31.1996
20.5353	31.0585
20.6538	30.9179
20.773	30.778
20.893	30.6386
21.0136	30.4999
21.1349	30.3617
21.2569	30.2241
21.3796	30.087
21.503	29.9506
21.6272	29.8147
21.752	29.6795
21.8776	29.5448
22.0039	29.4106
22.1309	29.2771
22.2587	29.1441
22.3872	29.0116
22.5165	28.8798
22.6464	28.7485
22.7772	28.6178
22.9087	28.4876
23.0409	28.358
23.1739	28.2289
23.3077	28.1004
23.4423	27.9725
23.5776	27.8451
23.7137	27.7182
23.8506	27.5919
23.9883	27.4662
24.1268	27.341
24.2661	27.2163
24.4062	27.0922
24.5471	26.9686
24.6888	26.8456
24.8313	26.7231
24.9747	26.6011
25.1189	26.4796
25.2639	26.3587
25.4097	26.2383
25.5564	26.1184
25.704	25.9991
25.8523	25.8803
26.0016	25.762
26.1517	25.6442
26.3027	25.5269
26.4545	25.4101
26.6073	25.2939
26.7609	25.1781
26.9153	25.0629
27.0707	24.9482
27.227	24.834
27.3842	24.7202
27.5423	24.607
27.7013	24.4943
27.8612	24.3821
28.0221	24.2703
28.1838	24.1591
28.3465	24.0484
28.5102	23.9381
28.6748	23.8283
28.8403	23.719
29.0068	23.6102
29.1743	23.5019
29.3427	23.3941
29.5121	23.2867
29.6825	23.1798
29.8538	23.0844
30.0262	22.9782
30.1995	22.8726
30.3739	22.7674
30.5492	22.6626
30.7256	22.5583
30.903	22.4545
31.0814	22.3512
31.2608	22.2483
31.4413	22.1459
31.6228	22.0439
31.8053	21.9424
31.989	21.8413
32.1736	21.7407
32.3594	21.6405
32.5462	21.5408
32.7341	21.4415
32.923	21.3427
33.1131	21.2443
33.3043	21.1463
33.4965	21.0488
33.6899	20.9517
33.8844	20.8551
34.08	20.7589
34.2768	20.6631
34.4747	20.5677
34.6737	20.4728
34.8739	20.3783
35.0752	20.2842
35.2777	20.1905
35.4813	20.0973
35.6862	20.0045
35.8922	19.9121
36.0994	19.8201
36.3078	19.7285
36.5174	19.6373
36.7282	19.5466
36.9403	19.4562
37.1535	19.3663
37.368	19.2767
37.5837	19.1876
37.8007	19.0989
38.0189	19.0105
38.2384	18.9226
38.4592	18.8351
38.6812	18.7479
38.9045	18.6612
39.1291	18.5748
39.355	18.4888
39.5822	18.4032
39.8107	18.318
40.0405	18.2332
40.2717	18.1488
40.5042	18.0647
40.738	17.9811
40.9732	17.8978
41.2098	17.8148
41.4477	17.7323
41.6869	17.6501
41.9276	17.5749
42.1697	17.4934
42.4131	17.4122
42.658	17.3314
42.9042	17.251
43.1519	17.1709
43.401	17.0912
43.6516	17.0119
43.9036	16.9329
44.157	16.8543
44.412	16.776
44.6684	16.6981
44.9262	16.6205
45.1856	16.5433
45.4465	16.4665
45.7088	16.39
45.9727	16.3138
46.2381	16.238
46.505	16.1626
46.7735	16.0875
47.0435	16.0127
47.3151	15.9383
47.5883	15.8642
47.863	15.7904
48.1393	15.717
48.4172	15.6439
48.6968	15.5712
48.9779	15.4988
49.2606	15.4267
49.545	15.3549
49.831	15.2835
50.1187	15.2124
50.4081	15.1416
50.6991	15.0712
50.9918	15.001
51.2861	14.9312
51.5822	14.8617
51.88	14.7926
52.1795	14.7237
52.4807	14.6552
52.7837	14.587
53.0884	14.519
53.3949	14.4515
53.7032	14.3842
54.0132	14.3172
54.325	14.2505
54.6387	14.1841
54.9541	14.1181
55.2713	14.0523
55.5904	13.9869
55.9114	13.9217
56.2341	13.8569
56.5588	13.7923
56.8853	13.7281
57.2137	13.6641
57.544	13.6004
57.8762	13.5371
58.2103	13.474
58.5464	13.4112
58.8844	13.3487
59.2243	13.2865
59.5662	13.2245
59.9101	13.1629
60.256	13.1016
60.6038	13.0405
60.9537	12.9797
61.3056	12.9193
61.6595	12.8591
62.0155	12.7991
62.3735	12.7395
62.7336	12.6801
63.0957	12.621
63.46	12.5622
63.8263	12.5036
64.1948	12.4453
64.5654	12.3873
64.9382	12.3295
65.3131	12.2721
65.6901	12.2148
66.0693	12.1579
66.4508	12.1012
66.8344	12.0448
67.2202	11.9886
67.6083	11.9327
67.9986	11.877
68.3912	11.8217
68.786	11.7665
69.1831	11.7116
69.5825	11.657
69.9842	11.6026
70.3882	11.5485
70.7946	11.4947
71.2033	11.441
71.6143	11.3877
72.0278	11.3345
72.4436	11.2817
72.8618	11.229
73.2825	11.1767
73.7055	11.1245
74.131	11.0726
74.559	11.021
74.9894	10.9695
75.4223	10.9184
75.8578	10.8674
76.2957	10.8167
76.7361	10.7663
77.1792	10.716
77.6247	10.666
78.0728	10.6163
78.5236	10.5667
78.9769	10.5174
79.4328	10.4684
79.8914	10.4195
80.3526	10.3709
80.8165	10.3225
81.2831	10.2743
81.7523	10.2264
82.2243	10.1787
82.699	10.1312
83.1764	10.0839
83.6566	10.0369
84.1395	9.99007
84.6253	9.94346
85.1138	9.89707
85.6052	9.8509
86.0994	9.80494
86.5964	9.7592
87.0964	9.71367
87.5992	9.66836
88.1049	9.62326
88.6135	9.57837
89.1251	9.53369
89.6396	9.48922
90.1571	9.44496
90.6776	9.40091
91.2011	9.35706
91.7276	9.31342
92.2571	9.26999
92.7897	9.22676
93.3254	9.18373
93.8642	9.14091
94.4061	9.09829
94.9511	9.05586
95.4993	9.01364
96.0506	8.97162
96.6051	8.92979
97.1628	8.88816
97.7237	8.84673
98.2879	8.80549
98.8553	8.76445
99.426	8.7236
100	8.68295
100.577	8.64248
101.158	8.60221
101.742	8.56213
102.329	8.52223
102.92	8.48253
103.514	8.44301
104.112	8.40368
104.713	8.36454
105.317	8.32558
105.925	8.28681
106.537	8.24822
107.152	8.20981
107.771	8.17158
108.393	8.13354
109.018	8.09567
109.648	8.05799
110.281	8.02048
110.917	7.98316
111.558	7.94601
112.202	7.90903
112.85	7.87223
113.501	7.83561
114.156	7.79916
114.815	7.76288
115.478	7.72678
116.145	7.69085
116.815	7.65509
117.49	7.6195
118.168	7.58407
118.85	7.54882
119.536	7.51374
120.226	7.47882
120.921	7.44407
121.619	7.40948
122.321	7.37506
123.027	7.34081
123.737	7.30671
124.451	7.27278
125.17	7.23901
125.893	7.20541
126.619	7.17196
127.35	7.13868
128.086	7.10555
128.825	7.07258
129.569	7.03977
130.317	7.00711
131.069	6.97462
131.826	6.94227
132.587	6.91009
133.352	6.87805
134.122	6.84617
134.896	6.81445
135.675	6.78287
136.458	6.75145
137.246	6.72017
138.038	6.68905
138.835	6.65808
139.637	6.62725
140.443	6.59658
141.254	6.56605
142.069	6.53566
142.889	6.50543
143.714	6.47534
144.544	6.44539
145.378	6.41559
146.218	6.38593
147.062	6.35641
147.911	6.32704
148.765	6.2978
149.624	6.26871
150.487	6.23976
151.356	6.21095
152.23	6.18227
153.109	6.15374
153.993	6.12534
154.882	6.09708
155.776	6.06896
156.675	6.04097
157.58	6.01311
158.489	5.9854
159.404	5.9578
160.325	5.93035
161.25	5.90303
162.181	5.87584
163.117	5.84879
164.059	5.82187
165.006	5.79507
165.959	5.76841
166.917	5.74187
167.88	5.71547
168.85	5.68919
169.824	5.66304
170.805	5.63701
171.791	5.61112
172.783	5.58534
173.78	5.5597
174.783	5.53417
175.792	5.50878
176.807	5.4835
177.828	5.45835
178.855	5.43332
179.887	5.40841
180.926	5.38362
181.97	5.35895
183.021	5.33441
184.077	5.30998
185.14	5.28567
186.209	5.26148
187.284	5.23741
188.365	5.21345
189.452	5.18961
190.546	5.16589
191.646	5.14228
192.752	5.11879
193.865	5.09541
194.984	5.07215
196.11	5.049
197.242	5.02597
198.381	5.00304
199.526	4.98023
200.678	4.95753
201.837	4.93494
203.002	4.91246
204.174	4.89009
205.353	4.86783
206.538	4.84568
207.73	4.82364
208.93	4.80171
210.136	4.77988
211.349	4.75816
212.569	4.73655
213.796	4.71504
215.03	4.69364
216.272	4.67234
217.52	4.65115
218.776	4.63006
220.039	4.60907
221.309	4.58819
222.587	4.56741
223.872	4.54673
225.165	4.52616
226.464	4.50568
227.772	4.48531
229.087	4.46504
230.409	4.44486
231.739	4.42479
233.077	4.40481
234.423	4.38494
235.776	4.36516
237.137	4.34548
238.506	4.32589
239.883	4.3064
241.268	4.28701
242.661	4.26772
244.062	4.24851
245.471	4.22941
246.888	4.2104
248.313	4.19148
249.747	4.17265
251.189	4.15392
252.639	4.13528
254.097	4.11674
255.564	4.09828
257.04	4.07992
258.523	4.06165
260.016	4.04346
261.517	4.02537
263.027	4.00737
264.545	3.98946
266.073	3.97163
267.609	3.9539
269.153	3.93625
270.707	3.91869
272.27	3.90121
273.842	3.88383
275.423	3.86653
277.013	3.84931
278.612	3.83219
280.221	3.81514
281.838	3.79818
283.465	3.78131
285.102	3.76452
286.748	3.74781
288.403	3.73119
290.068	3.71465
291.743	3.69819
293.427	3.68181
295.121	3.66552
296.825	3.6493
298.538	3.63317
300.262	3.61712
301.995	3.60115
303.739	3.58526
305.492	3.56944
307.256	3.55371
309.03	3.53805
310.814	3.52248
312.608	3.50698
314.413	3.49156
316.228	3.47621
318.053	3.46095
319.89	3.44575
321.736	3.43064
323.594	3.4156
325.462	3.40064
327.341	3.38575
329.23	3.37093
331.131	3.35619
333.043	3.34153
334.965	3.32694
336.899	3.31242
338.844	3.29797
340.8	3.2836
342.768	3.2693
344.747	3.25507
346.737	3.24091
348.739	3.22682
350.752	3.21281
352.777	3.19886
354.813	3.18499
356.862	3.17119
358.922	3.15745
360.994	3.14378
363.078	3.13019
365.174	3.11666
367.282	3.1032
369.403	3.08981
371.535	3.07648
373.68	3.06323
375.837	3.05004
378.007	3.03691
380.189	3.02386
382.384	3.01087
384.592	2.99794
386.812	2.98508
389.045	2.97229
391.291	2.95956
393.55	2.94689
395.822	2.93429
398.107	2.92175
400.405	2.90928
402.717	2.89687
405.042	2.88452
407.38	2.87224
409.732	2.86002
412.098	2.84786
414.477	2.83576
416.869	2.82372
419.276	2.81175
421.697	2.79983
424.131	2.78798
426.58	2.77619
429.042	2.76446
431.519	2.75278
434.01	2.74117
436.516	2.72961
439.036	2.71812
441.57	2.70668
444.12	2.6953
446.684	2.68398
449.262	2.67272
451.856	2.66152
454.465	2.65037
457.088	2.63928
459.727	2.62825
462.381	2.61727
465.05	2.60635
467.735	2.59549
470.435	2.58468
473.151	2.57392
475.883	2.56323
478.63	2.55258
481.393	2.54199
484.172	2.53146
486.968	2.52098
489.779	2.51056
492.606	2.50018
495.45	2.48986
498.31	2.4796
501.187	2.46939
504.081	2.45923
506.991	2.44912
509.918	2.43906
512.861	2.42906
515.822	2.41911
518.8	2.40921
521.795	2.39936
524.807	2.38956
527.837	2.37981
530.884	2.37011
533.949	2.36047
537.032	2.35087
540.132	2.34132
543.25	2.33182
546.387	2.32237
549.541	2.31297
552.713	2.30362
555.904	2.29432
559.114	2.28507
562.341	2.27586
565.588	2.2667
568.853	2.25759
572.137	2.24853
575.44	2.23952
578.762	2.23055
582.103	2.22163
585.464	2.21275
588.844	2.20392
592.243	2.19514
595.662	2.1864
599.101	2.17771
602.56	2.16906
606.038	2.16046
609.537	2.15191
613.056	2.1434
616.595	2.13493
620.155	2.12651
623.735	2.11813
627.336	2.1098
630.957	2.10151
634.6	2.09326
638.263	2.08506
641.948	2.0769
645.654	2.06878
649.382	2.06071
653.131	2.05268
656.901	2.04469
660.693	2.03674
664.508	2.02883
668.344	2.02097
672.202	2.01315
676.083	2.00537
679.986	1.99763
683.912	1.98993
687.86	1.98227
691.831	1.97465
695.825	1.96708
699.842	1.95954
703.882	1.95204
707.946	1.94459
712.033	1.93717
716.143	1.92979
720.278	1.92245
724.436	1.91515
728.618	1.90789
732.825	1.90067
737.055	1.89349
741.31	1.88634
745.59	1.87924
749.894	1.87217
754.223	1.86513
758.578	1.85814
762.957	1.85118
767.361	1.84427
771.792	1.83738
776.247	1.83054
780.728	1.82373
785.236	1.81696
789.769	1.81022
794.328	1.80352
798.914	1.79686
803.526	1.79023
808.165	1.78364
812.831	1.77708
817.523	1.77056
822.243	1.76408
826.99	1.75763
831.764	1.75121
836.566	1.74483
841.395	1.73848
846.253	1.73217
851.138	1.72589
856.052	1.71965
860.994	1.71344
865.964	1.70726
870.964	1.70112
875.992	1.69501
881.049	1.68893
886.135	1.68289
891.251	1.67688
896.396	1.6709
901.571	1.66496
906.776	1.65905
912.011	1.65317
917.276	1.64732
922.571	1.6415
927.897	1.63572
933.254	1.62997
938.642	1.62424
944.061	1.61856
949.511	1.6129
954.993	1.60727
960.506	1.60167
966.051	1.59611
971.628	1.59058
977.237	1.58507
982.879	1.5796
988.553	1.57415
994.26	1.56874
1000	1.56336
1005.77	1.55801
1011.58	1.55268
1017.42	1.54739
1023.29	1.54212
1029.2	1.53689
1035.14	1.53168
1041.12	1.5265
1047.13	1.52136
1053.17	1.51624
1059.25	1.51114
1065.37	1.50608
1071.52	1.50105
1077.71	1.49604
1083.93	1.49106
1090.18	1.48611
1096.48	1.48119
1102.81	1.4763
1109.17	1.47143
1115.58	1.46659
1122.02	1.46178
1128.5	1.45699
1135.01	1.45223
1141.56	1.4475
1148.15	1.4428
1154.78	1.43812
1161.45	1.43347
1168.15	1.42884
1174.9	1.42424
1181.68	1.41967
1188.5	1.41513
1195.36	1.4106
1202.26	1.40611
1209.21	1.40164
1216.19	1.3972
1223.21	1.39278
1230.27	1.38839
1237.37	1.38402
1244.51	1.37968
1251.7	1.37536
1258.93	1.37107
1266.19	1.3668
1273.5	1.36255
1280.86	1.35833
1288.25	1.35414
1295.69	1.34997
1303.17	1.34582
1310.69	1.3417
1318.26	1.3376
1325.87	1.33353
1333.52	1.32948
1341.22	1.32545
1348.96	1.32145
1356.75	1.31747
1364.58	1.31351
1372.46	1.30958
1380.38	1.30567
1388.35	1.30178
1396.37	1.29791
1404.43	1.29407
1412.54	1.29025
1420.69	1.28646
1428.89	1.28268
1437.14	1.27893
1445.44	1.2752
1453.78	1.27149
1462.18	1.2678
1470.62	1.26414
1479.11	1.2605
1487.65	1.25688
1496.24	1.25328
1504.87	1.2497
1513.56	1.24615
1522.3	1.24261
1531.09	1.2391
1539.93	1.23561
1548.82	1.23213
1557.76	1.22868
1566.75	1.22525
1575.8	1.22185
1584.89	1.21846
1594.04	1.21509
1603.25	1.21174
1612.5	1.20842
1621.81	1.20511
1631.17	1.20182
1640.59	1.19856
1650.06	1.19531
1659.59	1.19208
1669.17	1.18888
1678.8	1.18569
1688.5	1.18252
1698.24	1.17938
1708.05	1.17625
1717.91	1.17314
1727.83	1.17005
1737.8	1.16698
1747.83	1.16393
1757.92	1.16089
1768.07	1.15788
1778.28	1.15489
1788.55	1.15191
1798.87	1.14895
1809.26	1.14601
1819.7	1.14309
1830.21	1.14019
1840.77	1.13731
1851.4	1.13444
1862.09	1.1316
1872.84	1.12877
1883.65	1.12595
1894.52	1.12316
1905.46	1.12039
1916.46	1.11763
1927.52	1.11489
1938.65	1.11217
1949.84	1.10946
1961.1	1.10677
1972.42	1.1041
1983.81	1.10145
1995.26	1.09881
2006.78	1.09619
2018.37	1.09359
2030.02	1.09101
2041.74	1.08844
2053.53	1.08589
2065.38	1.08335
2077.3	1.08084
2089.3	1.07833
2101.36	1.07585
2113.49	1.07338
2125.69	1.07093
2137.96	1.06849
2150.3	1.06607
2162.72	1.06367
2175.2	1.06128
2187.76	1.05891
2200.39	1.05656
2213.09	1.05422
2225.87	1.05189
2238.72	1.04958
2251.65	1.04729
2264.64	1.04501
2277.72	1.04275
2290.87	1.04051
2304.09	1.03827
2317.39	1.03606
2330.77	1.03386
2344.23	1.03167
2357.76	1.0295
2371.37	1.02735
2385.06	1.02521
2398.83	1.02308
2412.68	1.02097
2426.61	1.01887
2440.62	1.01679
2454.71	1.01473
2468.88	1.01267
2483.13	1.01064
2497.47	1.00861
2511.89	1.0066
2526.39	1.00461
2540.97	1.00263
2555.64	1.00066
2570.4	0.998707
2585.23	0.996769
2600.16	0.994844
2615.17	0.992934
2630.27	0.991037
2645.45	0.989153
2660.73	0.987284
2676.09	0.985428
2691.53	0.983586
2707.07	0.981757
2722.7	0.979942
2738.42	0.97814
2754.23	0.976351
2770.13	0.974576
2786.12	0.972814
2802.21	0.971065
2818.38	0.969329
2834.65	0.967606
2851.02	0.965896
2867.48	0.964199
2884.03	0.962515
2900.68	0.960843
2917.43	0.959185
2934.27	0.957539
2951.21	0.955906
2968.25	0.954285
2985.38	0.952677
3002.62	0.951081
3019.95	0.949497
3037.39	0.947926
3054.92	0.946368
3072.56	0.944821
3090.3	0.943287
3108.14	0.941765
3126.08	0.940254
3144.13	0.938756
3162.28	0.93727
3180.53	0.935796
3198.9	0.934333
3217.36	0.932883
3235.94	0.931444
3254.62	0.930017
3273.41	0.928601
3292.3	0.927197
3311.31	0.925805
3330.43	0.924424
3349.65	0.923054
3368.99	0.921696
3388.44	0.920349
3408	0.919014
3427.68	0.91769
3447.47	0.916377
3467.37	0.915075
3487.39	0.913784
3507.52	0.912504
3527.77	0.911235
3548.13	0.909977
3568.62	0.90873
3589.22	0.907494
3609.94	0.906268
3630.78	0.905053
3651.74	0.903849
3672.82	0.902656
3694.03	0.901473
3715.35	0.900263
3736.8	0.899057
3758.37	0.89786
3780.07	0.896674
3801.89	0.895497
3823.84	0.89433
3845.92	0.893173
3868.12	0.892026
3890.45	0.890889
3912.91	0.889761
3935.5	0.888643
3958.22	0.887535
3981.07	0.886436
4004.05	0.885346
4027.17	0.884266
4050.42	0.883196
4073.8	0.882134
4097.32	0.881082
4120.98	0.88004
4144.77	0.879006
4168.69	0.877982
4192.76	0.876967
4216.97	0.875961
4241.31	0.874965
4265.8	0.873977
4290.42	0.872998
4315.19	0.872028
4340.1	0.871067
4365.16	0.870115
4390.36	0.869172
4415.7	0.868237
4441.2	0.867311
4466.84	0.866394
4492.62	0.865485
4518.56	0.864586
4544.65	0.863694
4570.88	0.862811
4597.27	0.861937
4623.81	0.861071
4650.5	0.860213
4677.35	0.859364
4704.35	0.858523
4731.51	0.857691
4758.83	0.856866
4786.3	0.85605
4813.93	0.855242
4841.72	0.854442
4869.68	0.85365
4897.79	0.852867
4926.06	0.852091
4954.5	0.851323
4983.1	0.850563
5011.87	0.849811
5040.81	0.849066
5069.91	0.84833
5099.18	0.847601
5128.61	0.84688
5158.22	0.846167
5188	0.845461
5217.95	0.844763
5248.07	0.844073
5278.37	0.84339
5308.84	0.842714
5339.49	0.842046
5370.32	0.841385
5401.32	0.840732
5432.5	0.840086
5463.87	0.839448
5495.41	0.838816
5527.13	0.838192
5559.04	0.837575
5591.14	0.836966
5623.41	0.836363
5655.88	0.835767
5688.53	0.835179
5721.37	0.834597
5754.4	0.834023
5787.62	0.833455
5821.03	0.832894
5854.64	0.832341
5888.44	0.831794
5922.43	0.831253
5956.62	0.83072
5991.01	0.830193
6025.6	0.829673
6060.38	0.82916
6095.37	0.828653
6130.56	0.828153
6165.95	0.827659
6201.55	0.827172
6237.35	0.826691
6273.36	0.826217
6309.57	0.825749
6346	0.825288
6382.63	0.824833
6419.48	0.824384
6456.54	0.823942
6493.82	0.823506
6531.31	0.823075
6569.01	0.822652
6606.93	0.822234
6645.08	0.821822
6683.44	0.821417
6722.02	0.821017
6760.83	0.820624
6799.86	0.820237
6839.12	0.819855
6878.6	0.819479
6918.31	0.81911
6958.25	0.818746
6998.42	0.818388
7038.82	0.818035
7079.46	0.817689
7120.33	0.817348
7161.43	0.817013
7202.78	0.816684
7244.36	0.81636
7286.18	0.816042
7328.25	0.815729
7370.55	0.815422
7413.1	0.81512
7455.9	0.814824
7498.94	0.814533
7542.23	0.814248
7585.78	0.813968
7629.57	0.813694
7673.61	0.813424
7717.92	0.81316
7762.47	0.812902
7807.28	0.812648
7852.36	0.8124
7897.69	0.812157
7943.28	0.811919
7989.14	0.811686
8035.26	0.811458
8081.65	0.811235
8128.31	0.811018
8175.23	0.810805
8222.43	0.810597
8269.9	0.810394
8317.64	0.810196
8365.66	0.810003
8413.95	0.809815
8462.53	0.809632
8511.38	0.809453
8560.52	0.809279
8609.94	0.80911
8659.64	0.808946
8709.64	0.808786
8759.92	0.808631
8810.49	0.808481
8861.35	0.808335
8912.51	0.808193
8963.96	0.808057
9015.71	0.807924
9067.76	0.807797
9120.11	0.807673
9172.76	0.807554
9225.71	0.80744
9278.97	0.80733
9332.54	0.807224
9386.42	0.807122
9440.61	0.807025
9495.11	0.806932
9549.93	0.806844
9605.06	0.806759
9660.51	0.806679
9716.28	0.806603
9772.37	0.806531
9828.79	0.806463
9885.53	0.806399
9942.6	0.80634
10000	0.806284
10057.7	0.806232
10115.8	0.806185
10174.2	0.806141
10232.9	0.806101
10292	0.806065
10351.4	0.806033
10411.2	0.806005
10471.3	0.805981
10531.7	0.80596
10592.5	0.805943
10653.7	0.80593
10715.2	0.805921
10777.1	0.805915
10839.3	0.805914
10901.8	0.805915
10964.8	0.805921
11028.1	0.80593
11091.7	0.805942
11155.8	0.805958
11220.2	0.805978
11285	0.806001
11350.1	0.806028
11415.6	0.806058
11481.5	0.806092
11547.8	0.806129
11614.5	0.806169
11681.5	0.806213
11749	0.80626
11816.8	0.806311
11885	0.806364
11953.6	0.806421
12022.6	0.806482
12092.1	0.806545
12161.9	0.806612
12232.1	0.806682
12302.7	0.806755
12373.7	0.806831
12445.1	0.806911
12517	0.806993
12589.3	0.807079
12661.9	0.807167
12735	0.807259
12808.6	0.807354
12882.5	0.807451
12956.9	0.807552
13031.7	0.807656
13106.9	0.807762
13182.6	0.807872
13258.7	0.807984
13335.2	0.808099
13412.2	0.808217
13489.6	0.808338
13567.5	0.808462
13645.8	0.808588
13724.6	0.808718
13803.8	0.80885
13883.5	0.808984
13963.7	0.809122
14044.3	0.809262
14125.4	0.809405
14206.9	0.80955
14288.9	0.809698
14371.4	0.809849
14454.4	0.810002
14537.8	0.810158
14621.8	0.810316
14706.2	0.810477
14791.1	0.81064
14876.5	0.810806
14962.4	0.810974
15048.7	0.811145
15135.6	0.811318
15223	0.811494
15310.9	0.811672
15399.3	0.811852
15488.2	0.812035
15577.6	0.81222
15667.5	0.812408
15758	0.812597
15848.9	0.812789
15940.4	0.812984
16032.5	0.81318
16125	0.813379
16218.1	0.81358
16311.7	0.813783
16405.9	0.813988
16500.6	0.814196
16595.9	0.814405
16691.7	0.814617
16788	0.814831
16885	0.815047
16982.4	0.815265
17080.5	0.815485
17179.1	0.815707
17278.3	0.815931
17378	0.816157
17478.3	0.816385
17579.2	0.816615
17680.7	0.816847
17782.8	0.817081
17885.5	0.817317
17988.7	0.817555
18092.6	0.817795
18197	0.818036
18302.1	0.81828
18407.7	0.818525
18514	0.818772
18620.9	0.819021
18728.4	0.819272
18836.5	0.819524
18945.2	0.819778
19054.6	0.820034
19164.6	0.820292
19275.2	0.820552
19386.5	0.820813
19498.4	0.821076
19611	0.82134
19724.2	0.821606
19838.1	0.821874
19952.6	0.822144
20067.8	0.822415
20183.7	0.822687
20300.2	0.822962
20417.4	0.823238
20535.3	0.823515
20653.8	0.823794
20773	0.824074
20893	0.824356
21013.6	0.82464
21134.9	0.824925
21256.9	0.825211
21379.6	0.825499
21503	0.825788
21627.2	0.826079
21752	0.826371
21877.6	0.826665
22003.9	0.82696
22130.9	0.827256
22258.7	0.827554
22387.2	0.827853
22516.5	0.828154
22646.4	0.828456
22777.2	0.828759
22908.7	0.829063
23040.9	0.829369
23173.9	0.829676
23307.7	0.829984
23442.3	0.830293
23577.6	0.830604
23713.7	0.830916
23850.6	0.831229
23988.3	0.831544
24126.8	0.831859
24266.1	0.832176
24406.2	0.832494
24547.1	0.832813
24688.8	0.833133
24831.3	0.833454
24974.7	0.833777
25118.9	0.834101
25263.9	0.834425
25409.7	0.834751
25556.4	0.835078
25704	0.835406
25852.3	0.835735
26001.6	0.836065
26151.7	0.836396
26302.7	0.836728
26454.5	0.837061
26607.3	0.837395
26760.9	0.83773
26915.3	0.838066
27070.7	0.838403
27227	0.838741
27384.2	0.83908
27542.3	0.83942
27701.3	0.839761
27861.2	0.840102
28022.1	0.840445
28183.8	0.840788
28346.5	0.841133
28510.2	0.841478
28674.8	0.841824
28840.3	0.842171
29006.8	0.842519
29174.3	0.842868
29342.7	0.843217
29512.1	0.843567
29682.5	0.843919
29853.8	0.84427
30026.2	0.844623
30199.5	0.844977
30373.9	0.845331
30549.2	0.845686
30725.6	0.846042
30903	0.846398
31081.4	0.846756
31260.8	0.847114
31441.3	0.847472
31622.8	0.847832
31805.3	0.848192
31989	0.848553
32173.6	0.848914
32359.4	0.849276
32546.2	0.849639
32734.1	0.850003
32923	0.850367
33113.1	0.850732
33304.3	0.851097
33496.5	0.851463
33689.9	0.85183
33884.4	0.852197
34080	0.852565
34276.8	0.852934
34474.7	0.853303
34673.7	0.853672
34873.9	0.854043
35075.2	0.854413
35277.7	0.854785
35481.3	0.855157
35686.2	0.855529
35892.2	0.855902
36099.4	0.856276
36307.8	0.85665
36517.4	0.857024
36728.2	0.857399
36940.3	0.857775
37153.5	0.858151
37368	0.858527
37583.7	0.858904
37800.7	0.859282
38018.9	0.85966
38238.4	0.860038
38459.2	0.860417
38681.2	0.860796
38904.5	0.861176
39129.1	0.861556
39355	0.861937
39582.2	0.862318
39810.7	0.862699
40040.5	0.863081
40271.7	0.863463
40504.2	0.863846
40738	0.864229
40973.2	0.864613
41209.8	0.864996
41447.7	0.86538
41686.9	0.865765
41927.6	0.86615
42169.7	0.866535
42413.1	0.866921
42658	0.867307
42904.2	0.867693
43151.9	0.868079
43401	0.868466
43651.6	0.868854
43903.6	0.869241
44157	0.869629
44412	0.870017
44668.4	0.870405
44926.2	0.870794
45185.6	0.871183
45446.5	0.871573
45708.8	0.871962
45972.7	0.872352
46238.1	0.872742
46505	0.873132
46773.5	0.873523
47043.5	0.873914
47315.1	0.874305
47588.3	0.874696
47863	0.875088
48139.3	0.87548
48417.2	0.875872
48696.8	0.876264
48977.9	0.876657
49260.6	0.877049
49545	0.877442
49831	0.877836
50118.7	0.878229
50408.1	0.878622
50699.1	0.879016
50991.8	0.87941
51286.1	0.879804
51582.2	0.880198
51880	0.880593
52179.5	0.880987
52480.7	0.881382
52783.7	0.881777
53088.4	0.882172
53394.9	0.882567
53703.2	0.882963
54013.2	0.883358
54325	0.883754
54638.7	0.88415
54954.1	0.884546
55271.3	0.884942
55590.4	0.885338
55911.4	0.885735
56234.1	0.886131
56558.8	0.886528
56885.3	0.886924
57213.7	0.887321
57544	0.887718
57876.2	0.888115
58210.3	0.888512
58546.4	0.888909
58884.4	0.889307
59224.3	0.889704
59566.2	0.890101
59910.1	0.890499
60256	0.890897
60603.8	0.891294
60953.7	0.891692
61305.6	0.89209
61659.5	0.892488
62015.5	0.892886
62373.5	0.893284
62733.6	0.893682
63095.7	0.89408
63460	0.894478
63826.3	0.894876
64194.8	0.895275
64565.4	0.895673
64938.2	0.896071
65313.1	0.89647
65690.1	0.896868
66069.3	0.897267
66450.8	0.897665
66834.4	0.898064
67220.2	0.898462
67608.3	0.898861
67998.6	0.899259
68391.2	0.899658
68786	0.900056
69183.1	0.900455
69582.5	0.900854
69984.2	0.901252
70388.2	0.901651
70794.6	0.90205
71203.3	0.902448
71614.3	0.902847
72027.8	0.903246
72443.6	0.903644
72861.8	0.904043
73282.5	0.904441
73705.5	0.90484
74131	0.905238
74559	0.905637
74989.4	0.906036
75422.3	0.906434
75857.8	0.906833
76295.7	0.907231
76736.1	0.907629
77179.2	0.908028
77624.7	0.908426
78072.8	0.908824
78523.6	0.909223
78976.9	0.909621
79432.8	0.910019
79891.4	0.910417
80352.6	0.910815
80816.5	0.911213
81283.1	0.911612
81752.3	0.912009
82224.3	0.912407
82699	0.912805
83176.4	0.913203
83656.6	0.913601
84139.5	0.913999
84625.3	0.914396
85113.8	0.914794
85605.2	0.915191
86099.4	0.915589
86596.4	0.915986
87096.4	0.916383
87599.2	0.916781
88104.9	0.917178
88613.5	0.917575
89125.1	0.917972
89639.6	0.918369
90157.1	0.918766
90677.6	0.919163
91201.1	0.919559
91727.6	0.919956
92257.1	0.920353
92789.7	0.920749
93325.4	0.921145
93864.2	0.921542
94406.1	0.921938
94951.1	0.922334
95499.3	0.92273
96050.6	0.923126
96605.1	0.923522
97162.8	0.923918
97723.7	0.924314
98287.9	0.924709
98855.3	0.925105
99426	0.9255
100000	0.925895
100577	0.926291
101158	0.926686
101742	0.927081
102329	0.927476
102920	0.927871
103514	0.928265
104112	0.92866
104713	0.929054
105317	0.929449
105925	0.929843
106537	0.930237
107152	0.930631
107771	0.931025
108393	0.931419
109018	0.931813
109648	0.932207
110281	0.9326
110917	0.932994
111558	0.933387
112202	0.93378
112850	0.934173
113501	0.934566
114156	0.934959
114815	0.935352
115478	0.935744
116145	0.936137
116815	0.936529
117490	0.936921
118168	0.937314
118850	0.937706
119536	0.938098
120226	0.938489
120921	0.938881
121619	0.939272
122321	0.939664
123027	0.940055
123737	0.940446
124451	0.940837
125170	0.941228
125893	0.941619
126619	0.94201
127350	0.9424
128086	0.942791
128825	0.943181
129569	0.943571
130317	0.943961
131069	0.944351
131826	0.944741
132587	0.945131
133352	0.94552
134122	0.94591
134896	0.946299
135675	0.946688
136458	0.947077
137246	0.947466
138038	0.947855
138835	0.948243
139637	0.948632
140443	0.94902
141254	0.949408
142069	0.949797
142889	0.950185
143714	0.950572
144544	0.95096
145378	0.951348
146218	0.951735
147062	0.952122
147911	0.95251
148765	0.952897
149624	0.953284
150487	0.95367
151356	0.954057
152230	0.954444
153109	0.95483
153993	0.955216
154882	0.955602
155776	0.955988
156675	0.956374
157580	0.95676
158489	0.957146
159404	0.957531
160325	0.957916
161250	0.958302
162181	0.958687
163117	0.959072
164059	0.959456
165006	0.959841
165959	0.960226
166917	0.96061
167880	0.960994
168850	0.961378
169824	0.961762
170805	0.962146
171791	0.96253
172783	0.962914
173780	0.963297
174783	0.96368
175792	0.964064
176807	0.964447
177828	0.96483
178855	0.965213
179887	0.965595
180926	0.965978
181970	0.96636
183021	0.966743
184077	0.967125
185140	0.967507
186209	0.967889
187284	0.96827
188365	0.968652
189452	0.969034
190546	0.969415
191646	0.969796
192752	0.970177
193865	0.970558
194984	0.970939
196110	0.97132
197242	0.971701
198381	0.972081
199526	0.972462
200678	0.972842
201837	0.973222
203002	0.973602
204174	0.973982
205353	0.974362
206538	0.974741
207730	0.975121
208930	0.9755
210136	0.975879
211349	0.976258
212569	0.976637
213796	0.977016
215030	0.977395
216272	0.977774
217520	0.978152
218776	0.978531
220039	0.978909
221309	0.979287
222587	0.979665
223872	0.980043
225165	0.980421
226464	0.980798
227772	0.981176
229087	0.981553
230409	0.981931
231739	0.982308
233077	0.982685
234423	0.983062
235776	0.983439
237137	0.983815
238506	0.984192
239883	0.984568
241268	0.984945
242661	0.985321
244062	0.985697
245471	0.986073
246888	0.986449
248313	0.986825
249747	0.987201
251189	0.987576
252639	0.987952
254097	0.988327
255564	0.988702
257040	0.989077
258523	0.989452
260016	0.989827
261517	0.990202
263027	0.990577
264545	0.990951
266073	0.991326
267609	0.9917
269153	0.992075
270707	0.992449
272270	0.992823
273842	0.993197
275423	0.993571
277013	0.993944
278612	0.994318
280221	0.994692
281838	0.995065
283465	0.995438
285102	0.995812
286748	0.996185
288403	0.996558
290068	0.996931
291743	0.997304
293427	0.997676
295121	0.998049
296825	0.998421
298538	0.998794
300262	0.999166
301995	0.999538
303739	0.999911
305492	1.00028
307256	1.00065
309030	1.00103
310814	1.0014
312608	1.00177
314413	1.00214
316228	1.00251
318053	1.00288
319890	1.00326
321736	1.00363
323594	1.004
325462	1.00437
327341	1.00474
329230	1.00511
331131	1.00548
333043	1.00585
334965	1.00622
336899	1.00659
338844	1.00696
340800	1.00733
342768	1.00771
344747	1.00808
346737	1.00845
348739	1.00882
350752	1.00919
352777	1.00956
354813	1.00993
356862	1.01029
358922	1.01066
360994	1.01103
363078	1.0114
365174	1.01177
367282	1.01214
369403	1.01251
371535	1.01288
373680	1.01325
375837	1.01362
378007	1.01399
380189	1.01436
382384	1.01473
384592	1.01509
386812	1.01546
389045	1.01583
391291	1.0162
393550	1.01657
395822	1.01694
398107	1.01731
400405	1.01767
402717	1.01804
405042	1.01841
407380	1.01878
409732	1.01915
412098	1.01951
414477	1.01988
416869	1.02025
419276	1.02062
421697	1.02099
424131	1.02135
426580	1.02172
429042	1.02209
431519	1.02246
434010	1.02282
436516	1.02319
439036	1.02356
441570	1.02392
444120	1.02429
446684	1.02466
449262	1.02503
451856	1.02539
454465	1.02576
457088	1.02613
459727	1.02649
462381	1.02686
465050	1.02722
467735	1.02759
470435	1.02796
473151	1.02832
475883	1.02869
478630	1.02906
481393	1.02942
484172	1.02979
486968	1.03015
489779	1.03052
492606	1.03088
495450	1.03125
498310	1.03162
501187	1.03198
504081	1.03235
506991	1.03271
509918	1.03308
512861	1.03344
515822	1.03381
518800	1.03417
521795	1.03454
524807	1.0349
527837	1.03526
530884	1.03563
533949	1.03599
537032	1.03636
540132	1.03672
543250	1.03709
546387	1.03745
549541	1.03781
552713	1.03818
555904	1.03854
559114	1.0389
562341	1.03927
565588	1.03963
568853	1.03999
572137	1.04036
575440	1.04072
578762	1.04108
582103	1.04145
585464	1.04181
588844	1.04217
592243	1.04253
595662	1.0429
599101	1.04326
602560	1.04362
606038	1.04398
609537	1.04434
613056	1.04471
616595	1.04507
620155	1.04543
623735	1.04579
627336	1.04615
630957	1.04651
634600	1.04687
638263	1.04724
641948	1.0476
645654	1.04796
649382	1.04832
653131	1.04868
656901	1.04904
660693	1.0494
664508	1.04976
668344	1.05012
672202	1.05048
676083	1.05084
679986	1.0512
683912	1.05156
687860	1.05192
691831	1.05228
695825	1.05264
699842	1.053
703882	1.05336
707946	1.05371
712033	1.05407
716143	1.05443
720278	1.05479
724436	1.05515
728618	1.05551
732825	1.05587
737055	1.05622
741310	1.05658
745590	1.05694
749894	1.0573
754223	1.05765
758578	1.05801
762957	1.05837
767361	1.05873
771792	1.05908
776247	1.05944
780728	1.0598
785236	1.06015
789769	1.06051
794328	1.06087
798914	1.06122
803526	1.06158
808165	1.06193
812831	1.06229
817523	1.06265
822243	1.063
826990	1.06336
831764	1.06371
836566	1.06407
841395	1.06442
846253	1.06478
851138	1.06513
856052	1.06549
860994	1.06584
865964	1.06619
870964	1.06655
875992	1.0669
881049	1.06726
886135	1.06761
891251	1.06796
896396	1.06832
901571	1.06867
906776	1.06902
912011	1.06938
917276	1.06973
922571	1.07008
927897	1.07043
933254	1.07079
938642	1.07114
944061	1.07149
949511	1.07184
954993	1.07219
960506	1.07255
966051	1.0729
971628	1.07325
977237	1.0736
982879	1.07395
988553	1.0743
994260	1.07465
1e+06	1.075
1.00577e+06	1.07535
1.01158e+06	1.0757
1.01742e+06	1.07605
1.02329e+06	1.0764
1.0292e+06	1.07675
1.03514e+06	1.0771
1.04112e+06	1.07745
1.04713e+06	1.0778
1.05317e+06	1.07815
1.05925e+06	1.0785
1.06537e+06	1.07885
1.07152e+06	1.07919
1.07771e+06	1.07954
1.08393e+06	1.07989
1.09018e+06	1.08024
1.09648e+06	1.08059
1.10281e+06	1.08093
1.10917e+06	1.08128
1.11558e+06	1.08163
1.12202e+06	1.08198
1.1285e+06	1.08232
1.13501e+06	1.08267
1.14156e+06	1.08302
1.14815e+06	1.08336
1.15478e+06	1.08371
1.16145e+06	1.08406
1.16815e+06	1.0844
1.1749e+06	1.08475
1.18168e+06	1.08509
1.1885e+06	1.08544
1.19536e+06	1.08579
1.20226e+06	1.08613
1.20921e+06	1.08648
1.21619e+06	1.08682
1.22321e+06	1.08716
1.23027e+06	1.08751
1.23737e+06	1.08785
1.24451e+06	1.0882
1.2517e+06	1.08854
1.25893e+06	1.08889
1.26619e+06	1.08923
1.2735e+06	1.08957
1.28086e+06	1.08992
1.28825e+06	1.09026
1.29569e+06	1.0906
1.30317e+06	1.09094
1.31069e+06	1.09129
1.31826e+06	1.09163
1.32587e+06	1.09197
1.33352e+06	1.09231
1.34122e+06	1.09265
1.34896e+06	1.093
1.35675e+06	1.09334
1.36458e+06	1.09368
1.37246e+06	1.09402
1.38038e+06	1.09436
1.38835e+06	1.0947
1.39637e+06	1.09504
1.40443e+06	1.09538
1.41254e+06	1.09572
1.42069e+06	1.09606
1.42889e+06	1.0964
1.43714e+06	1.09674
1.44544e+06	1.09708
1.45378e+06	1.09742
1.46218e+06	1.09776
1.47062e+06	1.0981
1.47911e+06	1.09844
1.48765e+06	1.09877
1.49624e+06	1.09911
1.50487e+06	1.09945
1.51356e+06	1.09979
1.5223e+06	1.10013
1.53109e+06	1.10046
1.53993e+06	1.1008
1.54882e+06	1.10114
1.55776e+06	1.10147
1.56675e+06	1.10181
1.5758e+06	1.10215
1.58489e+06	1.10248
1.59404e+06	1.10282
1.60325e+06	1.10316
1.6125e+06	1.10349
1.62181e+06	1.10383
1.63117e+06	1.10416
1.64059e+06	1.1045
1.65006e+06	1.10483
1.65959e+06	1.10517
1.66917e+06	1.1055
1.6788e+06	1.10583
1.6885e+06	1.10617
1.69824e+06	1.1065
1.70805e+06	1.10684
1.71791e+06	1.10717
1.72783e+06	1.1075
1.7378e+06	1.10784
1.74783e+06	1.10817
1.75792e+06	1.1085
1.76807e+06	1.10883
1.77828e+06	1.10917
1.78855e+06	1.1095
1.79887e+06	1.10983
1.80926e+06	1.11016
1.8197e+06	1.11049
1.83021e+06	1.11082
1.84077e+06	1.11115
1.8514e+06	1.11149
1.86209e+06	1.11182
1.87284e+06	1.11215
1.88365e+06	1.11248
1.89452e+06	1.11281
1.90546e+06	1.11314
1.91646e+06	1.11347
1.92752e+06	1.11379
1.93865e+06	1.11412
1.94984e+06	1.11445
1.9611e+06	1.11478
1.97242e+06	1.11511
1.98381e+06	1.11544
1.99526e+06	1.11577
2.00678e+06	1.11609
2.01837e+06	1.11642
2.03002e+06	1.11675
2.04174e+06	1.11708
2.05353e+06	1.1174
2.06538e+06	1.11773
2.0773e+06	1.11806
2.0893e+06	1.11838
2.10136e+06	1.11871
2.11349e+06	1.11903
2.12569e+06	1.11936
2.13796e+06	1.11968
2.1503e+06	1.12001
2.16272e+06	1.12033
2.1752e+06	1.12066
2.18776e+06	1.12098
2.20039e+06	1.12131
2.21309e+06	1.12163
2.22587e+06	1.12196
2.23872e+06	1.12228
2.25165e+06	1.1226
2.26464e+06	1.12293
2.27772e+06	1.12325
2.29087e+06	1.12357
2.30409e+06	1.12389
2.31739e+06	1.12422
2.33077e+06	1.12454
2.34423e+06	1.12486
2.35776e+06	1.12518
2.37137e+06	1.1255
2.38506e+06	1.12582
2.39883e+06	1.12615
2.41268e+06	1.12647
2.42661e+06	1.12679
2.44062e+06	1.12711
2.45471e+06	1.12743
2.46888e+06	1.12775
2.48313e+06	1.12807
2.49747e+06	1.12839
2.51189e+06	1.1287
2.52639e+06	1.12902
2.54097e+06	1.12934
2.55564e+06	1.12966
2.5704e+06	1.12998
2.58523e+06	1.1303
2.60016e+06	1.13061
2.61517e+06	1.13093
2.63027e+06	1.13125
2.64545e+06	1.13157
2.66073e+06	1.13188
2.67609e+06	1.1322
2.69153e+06	1.13252
2.70707e+06	1.13283
2.7227e+06	1.13315
2.73842e+06	1.13346
2.75423e+06	1.13378
2.77013e+06	1.13409
2.78612e+06	1.13441
2.80221e+06	1.13472
2.81838e+06	1.13504
2.83465e+06	1.13535
2.85102e+06	1.13567
2.86748e+06	1.13598
2.88403e+06	1.13629
2.90068e+06	1.13661
2.91743e+06	1.13692
2.93427e+06	1.13723
2.95121e+06	1.13755
2.96825e+06	1.13786
2.98538e+06	1.13817
3.00262e+06	1.13848
3.01995e+06	1.13879
3.03739e+06	1.1391
3.05492e+06	1.13942
3.07256e+06	1.13973
3.0903e+06	1.14004
3.10814e+06	1.14035
3.12608e+06	1.14066
3.14413e+06	1.14097
3.16228e+06	1.14128
3.18053e+06	1.14159
3.1989e+06	1.1419
3.21736e+06	1.1422
3.23594e+06	1.14251
3.25462e+06	1.14282
3.27341e+06	1.14313
3.2923e+06	1.14344
3.31131e+06	1.14375
3.33043e+06	1.14405
3.34965e+06	1.14436
3.36899e+06	1.14467
3.38844e+06	1.14497
3.408e+06	1.14528
3.42768e+06	1.14559
3.44747e+06	1.14589
3.46737e+06	1.1462
3.48739e+06	1.1465
3.50752e+06	1.14681
3.52777e+06	1.14711
3.54813e+06	1.14742
3.56862e+06	1.14772
3.58922e+06	1.14803
3.60994e+06	1.14833
3.63078e+06	1.14864
3.65174e+06	1.14894
3.67282e+06	1.14924
3.69403e+06	1.14955
3.71535e+06	1.14985
3.7368e+06	1.15015
3.75837e+06	1.15045
3.78007e+06	1.15076
3.80189e+06	1.15106
3.82384e+06	1.15136
3.84592e+06	1.15166
3.86812e+06	1.15196
3.89045e+06	1.15226
3.91291e+06	1.15256
3.9355e+06	1.15286
3.95822e+06	1.15316
3.98107e+06	1.15346
4.00405e+06	1.15376
4.02717e+06	1.15406
4.05042e+06	1.15436
4.0738e+06	1.15466
4.09732e+06	1.15496
4.12098e+06	1.15526
4.14477e+06	1.15556
4.16869e+06	1.15585
4.19276e+06	1.15615
4.21697e+06	1.15645
4.24131e+06	1.15675
4.2658e+06	1.15704
4.29042e+06	1.15734
4.31519e+06	1.15764
4.3401e+06	1.15793
4.36516e+06	1.15823
4.39036e+06	1.15852
4.4157e+06	1.15882
4.4412e+06	1.15911
4.46684e+06	1.15941
4.49262e+06	1.1597
4.51856e+06	1.16
4.54465e+06	1.16029
4.57088e+06	1.16059
4.59727e+06	1.16088
4.62381e+06	1.16117
4.6505e+06	1.16147
4.67735e+06	1.16176
4.70435e+06	1.16205
4.73151e+06	1.16234
4.75883e+06	1.16263
4.7863e+06	1.16293
4.81393e+06	1.16322
4.84172e+06	1.16351
4.86968e+06	1.1638
4.89779e+06	1.16409
4.92606e+06	1.16438
4.9545e+06	1.16467
4.9831e+06	1.16496
5.01187e+06	1.16525
5.04081e+06	1.16554
5.06991e+06	1.16583
5.09918e+06	1.16612
5.12861e+06	1.16641
5.15822e+06	1.1667
5.188e+06	1.16699
5.21795e+06	1.16727
5.24807e+06	1.16756
5.27837e+06	1.16785
5.30884e+06	1.16814
5.33949e+06	1.16842
5.37032e+06	1.16871
5.40132e+06	1.169
5.4325e+06	1.16928
5.46387e+06	1.16957
5.49541e+06	1.16985
5.52713e+06	1.17014
5.55904e+06	1.17043
5.59114e+06	1.17071
5.62341e+06	1.17099
5.65588e+06	1.17128
5.68853e+06	1.17156
5.72137e+06	1.17185
5.7544e+06	1.17213
5.78762e+06	1.17241
5.82103e+06	1.1727
5.85464e+06	1.17298
5.88844e+06	1.17326
5.92243e+06	1.17355
5.95662e+06	1.17383
5.99101e+06	1.17411
6.0256e+06	1.17439
6.06038e+06	1.17467
6.09537e+06	1.17495
6.13056e+06	1.17524
6.16595e+06	1.17552
6.20155e+06	1.1758
6.23735e+06	1.17608
6.27336e+06	1.17636
6.30957e+06	1.17664
6.346e+06	1.17692
6.38263e+06	1.17719
6.41948e+06	1.17747
6.45654e+06	1.17775
6.49382e+06	1.17803
6.53131e+06	1.17831
6.56901e+06	1.17859
6.60693e+06	1.17886
6.64508e+06	1.17914
6.68344e+06	1.17942
6.72202e+06	1.1797
6.76083e+06	1.17997
6.79986e+06	1.18025
6.83912e+06	1.18053
6.8786e+06	1.1808
6.91831e+06	1.18108
6.95825e+06	1.18135
6.99842e+06	1.18163
7.03882e+06	1.1819
7.07946e+06	1.18218
7.12033e+06	1.18245
7.16143e+06	1.18273
7.20278e+06	1.183
7.24436e+06	1.18327
7.28618e+06	1.18355
7.32825e+06	1.18382
7.37055e+06	1.18409
7.4131e+06	1.18437
7.4559e+06	1.18464
7.49894e+06	1.18491
7.54223e+06	1.18518
7.58578e+06	1.18545
7.62957e+06	1.18573
7.67361e+06	1.186
7.71792e+06	1.18627
7.76247e+06	1.18654
7.80728e+06	1.18681
7.85236e+06	1.18708
7.89769e+06	1.18735
7.94328e+06	1.18735
7.98914e+06	1.1873
8.03526e+06	1.18725
8.08165e+06	1.18721
8.12831e+06	1.18716
8.17523e+06	1.18712
8.22243e+06	1.18707
8.2699e+06	1.18703
8.31764e+06	1.18699
8.36566e+06	1.18694
8.41395e+06	1.1869
8.46253e+06	1.18686
8.51138e+06	1.18682
8.56052e+06	1.18678
8.60994e+06	1.18673
8.65964e+06	1.18669
8.70964e+06	1.18666
8.75992e+06	1.18662
8.81049e+06	1.18658
8.86135e+06	1.18654
8.91251e+06	1.1865
8.96396e+06	1.18646
9.01571e+06	1.18643
9.06776e+06	1.18639
9.12011e+06	1.18635
9.17276e+06	1.18632
9.22571e+06	1.18628
9.27897e+06	1.18625
9.33254e+06	1.18621
9.38642e+06	1.18618
9.44061e+06	1.18615
9.49511e+06	1.18611
9.54993e+06	1.18608
9.60506e+06	1.18605
9.66051e+06	1.18602
9.71628e+06	1.18598
9.77237e+06	1.18595
9.82879e+06	1.18592
9.88553e+06	1.18589
9.9426e+06	1.18586
1e+07	1.18583
