Stopping power dEdx from Ionisation for deuteron Z = 1 in Water, process name: hIoni
E [MeV]	dEdx [MeV/mm]
0.001	12.1542
0.00100577	12.1892
0.00101158	12.2244
0.00101742	12.2596
0.00102329	12.295
0.0010292	12.3304
0.00103514	12.3659
0.00104112	12.4016
0.00104713	12.4373
0.00105317	12.4732
0.00105925	12.5091
0.00106537	12.5452
0.00107152	12.5813
0.00107771	12.6176
0.00108393	12.654
0.00109018	12.6904
0.00109648	12.727
0.00110281	12.7637
0.00110917	12.8005
0.00111558	12.8374
0.00112202	12.8744
0.0011285	12.9115
0.00113501	12.9487
0.00114156	12.986
0.00114815	13.0235
0.00115478	13.061
0.00116145	13.0987
0.00116815	13.1364
0.0011749	13.1743
0.00118168	13.2123
0.0011885	13.2503
0.00119536	13.2885
0.00120226	13.3268
0.00120921	13.3652
0.00121619	13.4038
0.00122321	13.4424
0.00123027	13.4811
0.00123737	13.52
0.00124451	13.559
0.0012517	13.5981
0.00125893	13.6373
0.00126619	13.6766
0.0012735	13.716
0.00128086	13.7555
0.00128825	13.7952
0.00129569	13.8349
0.00130317	13.8748
0.00131069	13.9148
0.00131826	13.9549
0.00132587	13.9951
0.00133352	14.0355
0.00134122	14.0759
0.00134896	14.1165
0.00135675	14.1572
0.00136458	14.198
0.00137246	14.2389
0.00138038	14.28
0.00138835	14.3211
0.00139637	14.3624
0.00140443	14.4038
0.00141254	14.4453
0.00142069	14.4869
0.00142889	14.5287
0.00143714	14.5706
0.00144544	14.6126
0.00145378	14.6547
0.00146218	14.6969
0.00147062	14.7393
0.00147911	14.7818
0.00148765	14.8244
0.00149624	14.8671
0.00150487	14.91
0.00151356	14.9529
0.0015223	14.996
0.00153109	15.0393
0.00153993	15.0826
0.00154882	15.1261
0.00155776	15.1697
0.00156675	15.2134
0.0015758	15.2573
0.00158489	15.3012
0.00159404	15.3454
0.00160325	15.3896
0.0016125	15.4339
0.00162181	15.4784
0.00163117	15.523
0.00164059	15.5678
0.00165006	15.6127
0.00165959	15.6577
0.00166917	15.7028
0.0016788	15.7481
0.0016885	15.7934
0.00169824	15.839
0.00170805	15.8846
0.00171791	15.9304
0.00172783	15.9763
0.0017378	16.0224
0.00174783	16.0686
0.00175792	16.1149
0.00176807	16.1613
0.00177828	16.2079
0.00178855	16.2546
0.00179887	16.3015
0.00180926	16.3485
0.0018197	16.3956
0.00183021	16.4428
0.00184077	16.4902
0.0018514	16.5378
0.00186209	16.5854
0.00187284	16.6332
0.00188365	16.6812
0.00189452	16.7293
0.00190546	16.7775
0.00191646	16.8258
0.00192752	16.8743
0.00193865	16.923
0.00194984	16.9718
0.0019611	17.0207
0.00197242	17.0697
0.00198381	17.1189
0.00199526	17.1683
0.00200678	17.2178
0.00201837	17.2674
0.00203002	17.3172
0.00204174	17.3671
0.00205353	17.4171
0.00206538	17.4673
0.0020773	17.5177
0.0020893	17.5682
0.00210136	17.6188
0.00211349	17.6696
0.00212569	17.7205
0.00213796	17.7716
0.0021503	17.8228
0.00216272	17.8742
0.0021752	17.9257
0.00218776	17.9774
0.00220039	18.0292
0.00221309	18.0812
0.00222587	18.1333
0.00223872	18.1856
0.00225165	18.238
0.00226464	18.2906
0.00227772	18.3433
0.00229087	18.3961
0.00230409	18.4492
0.00231739	18.5023
0.00233077	18.5557
0.00234423	18.6092
0.00235776	18.6628
0.00237137	18.7166
0.00238506	18.7705
0.00239883	18.8246
0.00241268	18.8789
0.00242661	18.9333
0.00244062	18.9879
0.00245471	19.0426
0.00246888	19.0975
0.00248313	19.1526
0.00249747	19.2078
0.00251189	19.2631
0.00252639	19.3187
0.00254097	19.3743
0.00255564	19.4302
0.0025704	19.4862
0.00258523	19.5424
0.00260016	19.5987
0.00261517	19.6552
0.00263027	19.7118
0.00264545	19.7686
0.00266073	19.8256
0.00267609	19.8828
0.00269153	19.9401
0.00270707	19.9976
0.0027227	20.0552
0.00273842	20.113
0.00275423	20.171
0.00277013	20.2291
0.00278612	20.2874
0.00280221	20.3459
0.00281838	20.4045
0.00283465	20.4634
0.00285102	20.5223
0.00286748	20.5815
0.00288403	20.6408
0.00290068	20.7003
0.00291743	20.76
0.00293427	20.8198
0.00295121	20.8798
0.00296825	20.94
0.00298538	21.0004
0.00300262	21.0609
0.00301995	21.1216
0.00303739	21.1825
0.00305492	21.2435
0.00307256	21.3048
0.0030903	21.3662
0.00310814	21.4278
0.00312608	21.4895
0.00314413	21.5515
0.00316228	21.6136
0.00318053	21.6759
0.0031989	21.7384
0.00321736	21.801
0.00323594	21.8639
0.00325462	21.9269
0.00327341	21.9901
0.0032923	22.0535
0.00331131	22.117
0.00333043	22.1808
0.00334965	22.2447
0.00336899	22.3088
0.00338844	22.3731
0.003408	22.4376
0.00342768	22.5023
0.00344747	22.5672
0.00346737	22.6322
0.00348739	22.6974
0.00350752	22.7629
0.00352777	22.8285
0.00354813	22.8943
0.00356862	22.9603
0.00358922	23.0264
0.00360994	23.0928
0.00363078	23.1594
0.00365174	23.2261
0.00367282	23.2931
0.00369403	23.3602
0.00371535	23.4275
0.0037368	23.4951
0.00375837	23.5628
0.00378007	23.6307
0.00380189	23.6988
0.00382384	23.7671
0.00384592	23.8356
0.00386812	23.9043
0.00389045	23.9732
0.00391291	24.0423
0.0039355	24.1116
0.00395822	24.1811
0.00398107	24.2508
0.00400405	24.3207
0.00402717	24.3908
0.00405042	24.4611
0.0040738	24.5317
0.00409732	24.6024
0.00412098	24.6733
0.00414477	24.7444
0.00416869	24.8157
0.00419276	24.8872
0.00421697	24.959
0.00424131	25.0309
0.0042658	25.1031
0.00429042	25.1754
0.00431519	25.248
0.0043401	25.3208
0.00436516	25.3937
0.00439036	25.4669
0.0044157	25.5403
0.0044412	25.614
0.00446684	25.6878
0.00449262	25.7618
0.00451856	25.8361
0.00454465	25.9106
0.00457088	25.9852
0.00459727	26.0601
0.00462381	26.1353
0.0046505	26.2106
0.00467735	26.2861
0.00470435	26.3619
0.00473151	26.4379
0.00475883	26.5141
0.0047863	26.5905
0.00481393	26.6672
0.00484172	26.744
0.00486968	26.8211
0.00489779	26.8984
0.00492606	26.976
0.0049545	27.0537
0.0049831	27.1317
0.00501187	27.2099
0.00504081	27.2883
0.00506991	27.367
0.00509918	27.4459
0.00512861	27.525
0.00515822	27.6043
0.005188	27.6839
0.00521795	27.7637
0.00524807	27.8437
0.00527837	27.9239
0.00530884	28.0044
0.00533949	28.0852
0.00537032	28.1661
0.00540132	28.2473
0.0054325	28.3287
0.00546387	28.4104
0.00549541	28.4923
0.00552713	28.5744
0.00555904	28.6567
0.00559114	28.7393
0.00562341	28.8222
0.00565588	28.9053
0.00568853	28.9886
0.00572137	29.0721
0.0057544	29.1559
0.00578762	29.24
0.00582103	29.3242
0.00585464	29.4088
0.00588844	29.4935
0.00592243	29.5785
0.00595662	29.6638
0.00599101	29.7493
0.0060256	29.8351
0.00606038	29.9211
0.00609537	30.0073
0.00613056	30.0938
0.00616595	30.1805
0.00620155	30.2675
0.00623735	30.3548
0.00627336	30.4423
0.00630957	30.53
0.006346	30.618
0.00638263	30.7063
0.00641948	30.7948
0.00645654	30.8835
0.00649382	30.9725
0.00653131	31.0618
0.00656901	31.1513
0.00660693	31.2411
0.00664508	31.3312
0.00668344	31.4215
0.00672202	31.5121
0.00676083	31.6029
0.00679986	31.694
0.00683912	31.7853
0.0068786	31.877
0.00691831	31.9688
0.00695825	32.061
0.00699842	32.1534
0.00703882	32.2461
0.00707946	32.339
0.00712033	32.4322
0.00716143	32.5257
0.00720278	32.6195
0.00724436	32.7135
0.00728618	32.8078
0.00732825	32.9023
0.00737055	32.9972
0.0074131	33.0923
0.0074559	33.1877
0.00749894	33.2833
0.00754223	33.3793
0.00758578	33.4755
0.00762957	33.572
0.00767361	33.6687
0.00771792	33.7658
0.00776247	33.8631
0.00780728	33.9607
0.00785236	34.0586
0.00789769	34.1568
0.00794328	34.2552
0.00798914	34.354
0.00803526	34.453
0.00808165	34.5523
0.00812831	34.6519
0.00817523	34.7518
0.00822243	34.8519
0.0082699	34.9524
0.00831764	35.0531
0.00836566	35.1542
0.00841395	35.2555
0.00846253	35.3571
0.00851138	35.459
0.00856052	35.5612
0.00860994	35.6637
0.00865964	35.7665
0.00870964	35.8696
0.00875992	35.973
0.00881049	36.0767
0.00886135	36.1807
0.00891251	36.285
0.00896396	36.3896
0.00901571	36.4945
0.00906776	36.5996
0.00912011	36.7051
0.00917276	36.8109
0.00922571	36.917
0.00927897	37.0234
0.00933254	37.1302
0.00938642	37.2372
0.00944061	37.3445
0.00949511	37.4522
0.00954993	37.5601
0.00960506	37.6684
0.00966051	37.7769
0.00971628	37.8858
0.00977237	37.995
0.00982879	38.1046
0.00988553	38.2144
0.0099426	38.3245
0.01	38.435
0.0100577	38.5458
0.0101158	38.6569
0.0101742	38.7683
0.0102329	38.8801
0.010292	38.9921
0.0103514	39.1045
0.0104112	39.2172
0.0104713	39.3303
0.0105317	39.4436
0.0105925	39.5573
0.0106537	39.6713
0.0107152	39.7857
0.0107771	39.9004
0.0108393	40.0154
0.0109018	40.1307
0.0109648	40.2464
0.0110281	40.3624
0.0110917	40.4787
0.0111558	40.5954
0.0112202	40.7124
0.011285	40.8298
0.0113501	40.9474
0.0114156	41.0655
0.0114815	41.1838
0.0115478	41.3025
0.0116145	41.4216
0.0116815	41.541
0.011749	41.6607
0.0118168	41.7808
0.011885	41.9012
0.0119536	42.022
0.0120226	42.1431
0.0120921	42.2646
0.0121619	42.3864
0.0122321	42.5086
0.0123027	42.6311
0.0123737	42.754
0.0124451	42.8772
0.012517	43.0008
0.0125893	43.1248
0.0126619	43.2491
0.012735	43.3737
0.0128086	43.4988
0.0128825	43.6241
0.0129569	43.7499
0.0130317	43.876
0.0131069	44.0024
0.0131826	44.1293
0.0132587	44.2565
0.0133352	44.384
0.0134122	44.512
0.0134896	44.6403
0.0135675	44.7689
0.0136458	44.898
0.0137246	45.0274
0.0138038	45.1572
0.0138835	45.2873
0.0139637	45.4179
0.0140443	45.5488
0.0141254	45.6801
0.0142069	45.8117
0.0142889	45.9438
0.0143714	46.0762
0.0144544	46.209
0.0145378	46.3422
0.0146218	46.4758
0.0147062	46.6098
0.0147911	46.7441
0.0148765	46.8788
0.0149624	47.014
0.0150487	47.1495
0.0151356	47.2854
0.015223	47.4217
0.0153109	47.5584
0.0153993	47.6954
0.0154882	47.8329
0.0155776	47.9708
0.0156675	48.1091
0.015758	48.2477
0.0158489	48.3868
0.0159404	48.5263
0.0160325	48.6661
0.016125	48.8064
0.0162181	48.9471
0.0163117	49.0882
0.0164059	49.2297
0.0165006	49.3716
0.0165959	49.5139
0.0166917	49.6566
0.016788	49.7997
0.016885	49.9433
0.0169824	50.0872
0.0170805	50.2316
0.0171791	50.3764
0.0172783	50.5216
0.017378	50.6672
0.0174783	50.8132
0.0175792	50.9597
0.0176807	51.1066
0.0177828	51.2539
0.0178855	51.4016
0.0179887	51.5498
0.0180926	51.6984
0.018197	51.8474
0.0183021	51.9968
0.0184077	52.1467
0.018514	52.297
0.0186209	52.4477
0.0187284	52.5989
0.0188365	52.7505
0.0189452	52.9026
0.0190546	53.0551
0.0191646	53.208
0.0192752	53.3614
0.0193865	53.5152
0.0194984	53.6694
0.019611	53.8241
0.0197242	53.9792
0.0198381	54.1348
0.0199526	54.2909
0.0200678	54.4474
0.0201837	54.5945
0.0203002	54.7283
0.0204174	54.8623
0.0205353	54.9965
0.0206538	55.1311
0.020773	55.2658
0.020893	55.4008
0.0210136	55.5361
0.0211349	55.6716
0.0212569	55.8074
0.0213796	55.9434
0.021503	56.0797
0.0216272	56.2163
0.021752	56.353
0.0218776	56.4901
0.0220039	56.6274
0.0221309	56.7649
0.0222587	56.9027
0.0223872	57.0407
0.0225165	57.179
0.0226464	57.3175
0.0227772	57.4563
0.0229087	57.5953
0.0230409	57.7345
0.0231739	57.874
0.0233077	58.0138
0.0234423	58.1538
0.0235776	58.294
0.0237137	58.4345
0.0238506	58.5752
0.0239883	58.7161
0.0241268	58.8573
0.0242661	58.9987
0.0244062	59.1404
0.0245471	59.2823
0.0246888	59.4244
0.0248313	59.5668
0.0249747	59.7094
0.0251189	59.8523
0.0252639	59.9953
0.0254097	60.1386
0.0255564	60.2822
0.025704	60.4259
0.0258523	60.5699
0.0260016	60.7141
0.0261517	60.8586
0.0263027	61.0032
0.0264545	61.1481
0.0266073	61.2932
0.0267609	61.4386
0.0269153	61.5841
0.0270707	61.7299
0.027227	61.8759
0.0273842	62.0221
0.0275423	62.1685
0.0277013	62.3152
0.0278612	62.462
0.0280221	62.6091
0.0281838	62.7563
0.0283465	62.9038
0.0285102	63.0515
0.0286748	63.1994
0.0288403	63.3475
0.0290068	63.4958
0.0291743	63.6443
0.0293427	63.793
0.0295121	63.9419
0.0296825	64.091
0.0298538	64.2403
0.0300262	64.3898
0.0301995	64.5395
0.0303739	64.6894
0.0305492	64.8395
0.0307256	64.9897
0.030903	65.1402
0.0310814	65.2908
0.0312608	65.4416
0.0314413	65.5926
0.0316228	65.7437
0.0318053	65.8951
0.031989	66.0466
0.0321736	66.1983
0.0323594	66.3501
0.0325462	66.5022
0.0327341	66.6544
0.032923	66.8067
0.0331131	66.9593
0.0333043	67.112
0.0334965	67.2648
0.0336899	67.4178
0.0338844	67.571
0.03408	67.7243
0.0342768	67.8777
0.0344747	68.0313
0.0346737	68.1851
0.0348739	68.339
0.0350752	68.493
0.0352777	68.6472
0.0354813	68.8015
0.0356862	68.956
0.0358922	69.1105
0.0360994	69.2652
0.0363078	69.4201
0.0365174	69.575
0.0367282	69.7301
0.0369403	69.8853
0.0371535	70.0406
0.037368	70.196
0.0375837	70.3516
0.0378007	70.5072
0.0380189	70.663
0.0382384	70.8188
0.0384592	70.9747
0.0386812	71.1308
0.0389045	71.2869
0.0391291	71.4431
0.039355	71.5994
0.0395822	71.7558
0.0398107	71.9123
0.0400405	72.0689
0.0402717	72.2255
0.0405042	72.3822
0.040738	72.5389
0.0409732	72.6958
0.0412098	72.8526
0.0414477	73.0096
0.0416869	73.1666
0.0419276	73.3236
0.0421697	73.4807
0.0424131	73.6378
0.042658	73.795
0.0429042	73.9522
0.0431519	74.1095
0.043401	74.2667
0.0436516	74.424
0.0439036	74.5814
0.044157	74.7387
0.044412	74.896
0.0446684	75.0534
0.0449262	75.2108
0.0451856	75.3681
0.0454465	75.5255
0.0457088	75.6828
0.0459727	75.8402
0.0462381	75.9975
0.046505	76.1548
0.0467735	76.3121
0.0470435	76.4693
0.0473151	76.6265
0.0475883	76.7837
0.047863	76.9409
0.0481393	77.0979
0.0484172	77.255
0.0486968	77.412
0.0489779	77.5689
0.0492606	77.7257
0.049545	77.8825
0.049831	78.0392
0.0501187	78.1959
0.0504081	78.3524
0.0506991	78.5089
0.0509918	78.6652
0.0512861	78.8215
0.0515822	78.9777
0.05188	79.1337
0.0521795	79.2897
0.0524807	79.4455
0.0527837	79.6012
0.0530884	79.7567
0.0533949	79.9121
0.0537032	80.0674
0.0540132	80.2225
0.054325	80.3775
0.0546387	80.5323
0.0549541	80.687
0.0552713	80.8415
0.0555904	80.9958
0.0559114	81.1499
0.0562341	81.3038
0.0565588	81.4576
0.0568853	81.6111
0.0572137	81.7644
0.057544	81.9176
0.0578762	82.0705
0.0582103	82.2231
0.0585464	82.3756
0.0588844	82.5278
0.0592243	82.6798
0.0595662	82.8315
0.0599101	82.983
0.060256	83.1342
0.0606038	83.2851
0.0609537	83.4357
0.0613056	83.5861
0.0616595	83.7362
0.0620155	83.886
0.0623735	84.0355
0.0627336	84.1846
0.0630957	84.3335
0.06346	84.482
0.0638263	84.6302
0.0641948	84.7781
0.0645654	84.9256
0.0649382	85.0728
0.0653131	85.2196
0.0656901	85.366
0.0660693	85.5121
0.0664508	85.6578
0.0668344	85.8031
0.0672202	85.948
0.0676083	86.0925
0.0679986	86.2366
0.0683912	86.3802
0.068786	86.5235
0.0691831	86.6663
0.0695825	86.8087
0.0699842	86.9506
0.0703882	87.092
0.0707946	87.233
0.0712033	87.3735
0.0716143	87.5136
0.0720278	87.6531
0.0724436	87.7921
0.0728618	87.9307
0.0732825	88.0687
0.0737055	88.2062
0.074131	88.3432
0.074559	88.4796
0.0749894	88.6155
0.0754223	88.7508
0.0758578	88.8855
0.0762957	89.0197
0.0767361	89.1533
0.0771792	89.2863
0.0776247	89.4187
0.0780728	89.5505
0.0785236	89.6817
0.0789769	89.8123
0.0794328	89.9422
0.0798914	90.0715
0.0803526	90.2001
0.0808165	90.3281
0.0812831	90.4553
0.0817523	90.582
0.0822243	90.7079
0.082699	90.8331
0.0831764	90.9576
0.0836566	91.0814
0.0841395	91.2045
0.0846253	91.3268
0.0851138	91.4484
0.0856052	91.5693
0.0860994	91.6893
0.0865964	91.8086
0.0870964	91.9272
0.0875992	92.0449
0.0881049	92.1618
0.0886135	92.278
0.0891251	92.3933
0.0896396	92.5077
0.0901571	92.6214
0.0906776	92.7341
0.0912011	92.8461
0.0917276	92.9571
0.0922571	93.0673
0.0927897	93.1766
0.0933254	93.285
0.0938642	93.3925
0.0944061	93.4991
0.0949511	93.6047
0.0954993	93.7094
0.0960506	93.8132
0.0966051	93.916
0.0971628	94.0178
0.0977237	94.1187
0.0982879	94.2186
0.0988553	94.3175
0.099426	94.4154
0.1	94.5122
0.100577	94.6081
0.101158	94.7029
0.101742	94.7966
0.102329	94.8894
0.10292	94.981
0.103514	95.0716
0.104112	95.1611
0.104713	95.2495
0.105317	95.3368
0.105925	95.4229
0.106537	95.508
0.107152	95.5919
0.107771	95.6747
0.108393	95.7563
0.109018	95.8368
0.109648	95.9161
0.110281	95.9942
0.110917	96.0712
0.111558	96.1469
0.112202	96.2214
0.11285	96.2947
0.113501	96.3668
0.114156	96.4376
0.114815	96.5072
0.115478	96.5755
0.116145	96.6425
0.116815	96.7083
0.11749	96.7728
0.118168	96.836
0.11885	96.8979
0.119536	96.9584
0.120226	97.0177
0.120921	97.0756
0.121619	97.1322
0.122321	97.1874
0.123027	97.2413
0.123737	97.2938
0.124451	97.3449
0.12517	97.3946
0.125893	97.443
0.126619	97.4899
0.12735	97.5354
0.128086	97.5795
0.128825	97.6222
0.129569	97.6634
0.130317	97.7032
0.131069	97.7415
0.131826	97.7784
0.132587	97.8138
0.133352	97.8477
0.134122	97.8801
0.134896	97.911
0.135675	97.9404
0.136458	97.9684
0.137246	97.9947
0.138038	98.0196
0.138835	98.0429
0.139637	98.0647
0.140443	98.085
0.141254	98.1037
0.142069	98.1208
0.142889	98.1363
0.143714	98.1503
0.144544	98.1627
0.145378	98.1735
0.146218	98.1827
0.147062	98.1903
0.147911	98.1963
0.148765	98.2007
0.149624	98.2034
0.150487	98.2046
0.151356	98.204
0.15223	98.2019
0.153109	98.1981
0.153993	98.1926
0.154882	98.1855
0.155776	98.1768
0.156675	98.1663
0.15758	98.1542
0.158489	98.1405
0.159404	98.125
0.160325	98.1078
0.16125	98.089
0.162181	98.0685
0.163117	98.0462
0.164059	98.0223
0.165006	97.9967
0.165959	97.9693
0.166917	97.9402
0.16788	97.9095
0.16885	97.877
0.169824	97.8427
0.170805	97.8068
0.171791	97.7691
0.172783	97.7297
0.17378	97.6885
0.174783	97.6457
0.175792	97.601
0.176807	97.5547
0.177828	97.5066
0.178855	97.4567
0.179887	97.4051
0.180926	97.3518
0.18197	97.2967
0.183021	97.2399
0.184077	97.1813
0.18514	97.1209
0.186209	97.0588
0.187284	96.995
0.188365	96.9294
0.189452	96.8621
0.190546	96.793
0.191646	96.7222
0.192752	96.6496
0.193865	96.5753
0.194984	96.4992
0.19611	96.4214
0.197242	96.3418
0.198381	96.2605
0.199526	96.1775
0.200678	96.0927
0.201837	96.0062
0.203002	95.9179
0.204174	95.8279
0.205353	95.7362
0.206538	95.6428
0.20773	95.5476
0.20893	95.4508
0.210136	95.3522
0.211349	95.2519
0.212569	95.1499
0.213796	95.0462
0.21503	94.9408
0.216272	94.8337
0.21752	94.7249
0.218776	94.6145
0.220039	94.5023
0.221309	94.3885
0.222587	94.273
0.223872	94.1559
0.225165	94.0371
0.226464	93.9167
0.227772	93.7946
0.229087	93.6709
0.230409	93.5455
0.231739	93.4186
0.233077	93.29
0.234423	93.1598
0.235776	93.028
0.237137	92.8946
0.238506	92.7596
0.239883	92.6231
0.241268	92.485
0.242661	92.3453
0.244062	92.2041
0.245471	92.0613
0.246888	91.917
0.248313	91.7712
0.249747	91.6239
0.251189	91.475
0.252639	91.3247
0.254097	91.1729
0.255564	91.0196
0.25704	90.8649
0.258523	90.7087
0.260016	90.551
0.261517	90.3919
0.263027	90.2314
0.264545	90.0695
0.266073	89.9062
0.267609	89.7415
0.269153	89.5754
0.270707	89.408
0.27227	89.2392
0.273842	89.0691
0.275423	88.8976
0.277013	88.7249
0.278612	88.5508
0.280221	88.3754
0.281838	88.1988
0.283465	88.0209
0.285102	87.8418
0.286748	87.6614
0.288403	87.4798
0.290068	87.2969
0.291743	87.1129
0.293427	86.9277
0.295121	86.7413
0.296825	86.5538
0.298538	86.3652
0.300262	86.1754
0.301995	85.9845
0.303739	85.7925
0.305492	85.5994
0.307256	85.4052
0.30903	85.21
0.310814	85.0138
0.312608	84.8165
0.314413	84.6182
0.316228	84.4189
0.318053	84.2187
0.31989	84.0175
0.321736	83.8153
0.323594	83.6122
0.325462	83.4082
0.327341	83.2033
0.32923	82.9975
0.331131	82.7908
0.333043	82.5833
0.334965	82.3749
0.336899	82.1657
0.338844	81.9557
0.3408	81.7449
0.342768	81.5333
0.344747	81.321
0.346737	81.1079
0.348739	80.8941
0.350752	80.6796
0.352777	80.4644
0.354813	80.2486
0.356862	80.032
0.358922	79.8148
0.360994	79.597
0.363078	79.3786
0.365174	79.1595
0.367282	78.9399
0.369403	78.7197
0.371535	78.499
0.37368	78.2777
0.375837	78.0559
0.378007	77.8336
0.380189	77.6108
0.382384	77.3876
0.384592	77.1639
0.386812	76.9397
0.389045	76.7152
0.391291	76.4902
0.39355	76.2648
0.395822	76.0391
0.398107	75.813
0.400405	75.5866
0.402717	75.3598
0.405042	75.1327
0.40738	74.9053
0.409732	74.6777
0.412098	74.4497
0.414477	74.2215
0.416869	73.9931
0.419276	73.7645
0.421697	73.5356
0.424131	73.3066
0.42658	73.0774
0.429042	72.848
0.431519	72.6185
0.43401	72.3888
0.436516	72.159
0.439036	71.9292
0.44157	71.6992
0.44412	71.4691
0.446684	71.239
0.449262	71.0089
0.451856	70.7787
0.454465	70.5485
0.457088	70.3182
0.459727	70.088
0.462381	69.8578
0.46505	69.6277
0.467735	69.3976
0.470435	69.1675
0.473151	68.9375
0.475883	68.7076
0.47863	68.4778
0.481393	68.2481
0.484172	68.0186
0.486968	67.7891
0.489779	67.5598
0.492606	67.3307
0.49545	67.1017
0.49831	66.873
0.501187	66.6444
0.504081	66.416
0.506991	66.1878
0.509918	65.9599
0.512861	65.7322
0.515822	65.5047
0.5188	65.2775
0.521795	65.0506
0.524807	64.8239
0.527837	64.5975
0.530884	64.3715
0.533949	64.1457
0.537032	63.9203
0.540132	63.6952
0.54325	63.4704
0.546387	63.246
0.549541	63.0219
0.552713	62.7982
0.555904	62.5748
0.559114	62.3519
0.562341	62.1293
0.565588	61.9071
0.568853	61.6854
0.572137	61.464
0.57544	61.2431
0.578762	61.0226
0.582103	60.8026
0.585464	60.5829
0.588844	60.3638
0.592243	60.1451
0.595662	59.9268
0.599101	59.7091
0.60256	59.4918
0.606038	59.275
0.609537	59.0587
0.613056	58.8429
0.616595	58.6275
0.620155	58.4127
0.623735	58.1985
0.627336	57.9847
0.630957	57.7715
0.6346	57.5588
0.638263	57.3466
0.641948	57.135
0.645654	56.9239
0.649382	56.7133
0.653131	56.5034
0.656901	56.294
0.660693	56.0851
0.664508	55.8768
0.668344	55.6691
0.672202	55.462
0.676083	55.2554
0.679986	55.0494
0.683912	54.8441
0.68786	54.6393
0.691831	54.4351
0.695825	54.2315
0.699842	54.0284
0.703882	53.826
0.707946	53.6242
0.712033	53.4231
0.716143	53.2225
0.720278	53.0225
0.724436	52.8232
0.728618	52.6244
0.732825	52.4263
0.737055	52.2288
0.74131	52.0319
0.74559	51.8357
0.749894	51.64
0.754223	51.4451
0.758578	51.2507
0.762957	51.0569
0.767361	50.8638
0.771792	50.6714
0.776247	50.4795
0.780728	50.2883
0.785236	50.0977
0.789769	49.9078
0.794328	49.7185
0.798914	49.5298
0.803526	49.3418
0.808165	49.1544
0.812831	48.9677
0.817523	48.7816
0.822243	48.5961
0.82699	48.4113
0.831764	48.2271
0.836566	48.0435
0.841395	47.8606
0.846253	47.6783
0.851138	47.4967
0.856052	47.3156
0.860994	47.1353
0.865964	46.9555
0.870964	46.7764
0.875992	46.598
0.881049	46.4201
0.886135	46.2429
0.891251	46.0664
0.896396	45.8904
0.901571	45.7151
0.906776	45.5405
0.912011	45.3664
0.917276	45.193
0.922571	45.0202
0.927897	44.848
0.933254	44.6765
0.938642	44.5056
0.944061	44.3353
0.949511	44.1656
0.954993	43.9965
0.960506	43.8281
0.966051	43.6603
0.971628	43.493
0.977237	43.3264
0.982879	43.1604
0.988553	42.9951
0.99426	42.8303
1	42.6661
1.00577	42.5025
1.01158	42.3396
1.01742	42.1772
1.02329	42.0154
1.0292	41.8543
1.03514	41.6937
1.04112	41.5337
1.04713	41.3743
1.05317	41.2155
1.05925	41.0573
1.06537	40.8997
1.07152	40.7426
1.07771	40.5861
1.08393	40.4303
1.09018	40.2749
1.09648	40.1202
1.10281	39.966
1.10917	39.8124
1.11558	39.6594
1.12202	39.5069
1.1285	39.3551
1.13501	39.2037
1.14156	39.0529
1.14815	38.9027
1.15478	38.7531
1.16145	38.6039
1.16815	38.4554
1.1749	38.3074
1.18168	38.1599
1.1885	38.013
1.19536	37.8666
1.20226	37.7208
1.20921	37.5755
1.21619	37.4307
1.22321	37.2865
1.23027	37.1428
1.23737	36.9996
1.24451	36.857
1.2517	36.7148
1.25893	36.5732
1.26619	36.4322
1.2735	36.2916
1.28086	36.1516
1.28825	36.012
1.29569	35.873
1.30317	35.7345
1.31069	35.5965
1.31826	35.459
1.32587	35.322
1.33352	35.1855
1.34122	35.0495
1.34896	34.914
1.35675	34.779
1.36458	34.6444
1.37246	34.5104
1.38038	34.3769
1.38835	34.2438
1.39637	34.1112
1.40443	33.9791
1.41254	33.8475
1.42069	33.7164
1.42889	33.5857
1.43714	33.4555
1.44544	33.3258
1.45378	33.1966
1.46218	33.0678
1.47062	32.9394
1.47911	32.8116
1.48765	32.6842
1.49624	32.5572
1.50487	32.4307
1.51356	32.3047
1.5223	32.1791
1.53109	32.054
1.53993	31.9293
1.54882	31.8051
1.55776	31.6813
1.56675	31.5579
1.5758	31.435
1.58489	31.3126
1.59404	31.1905
1.60325	31.0689
1.6125	30.9478
1.62181	30.827
1.63117	30.7067
1.64059	30.5869
1.65006	30.4674
1.65959	30.3484
1.66917	30.2298
1.6788	30.1116
1.6885	29.9938
1.69824	29.8765
1.70805	29.7596
1.71791	29.643
1.72783	29.5269
1.7378	29.4112
1.74783	29.2959
1.75792	29.1811
1.76807	29.0666
1.77828	28.9525
1.78855	28.8388
1.79887	28.7256
1.80926	28.6127
1.8197	28.5002
1.83021	28.3881
1.84077	28.2765
1.8514	28.1652
1.86209	28.0543
1.87284	27.9438
1.88365	27.8336
1.89452	27.7239
1.90546	27.6145
1.91646	27.5056
1.92752	27.397
1.93865	27.2888
1.94984	27.1809
1.9611	27.0735
1.97242	26.9664
1.98381	26.8597
1.99526	26.7534
2.00678	26.6474
2.01837	26.5418
2.03002	26.4366
2.04174	26.3318
2.05353	26.2273
2.06538	26.1232
2.0773	26.0194
2.0893	25.916
2.10136	25.813
2.11349	25.7103
2.12569	25.608
2.13796	25.506
2.1503	25.4044
2.16272	25.3032
2.1752	25.2023
2.18776	25.1017
2.20039	25.0015
2.21309	24.9017
2.22587	24.8022
2.23872	24.7031
2.25165	24.6043
2.26464	24.5058
2.27772	24.4077
2.29087	24.3099
2.30409	24.2125
2.31739	24.1154
2.33077	24.0186
2.34423	23.9222
2.35776	23.8261
2.37137	23.7304
2.38506	23.635
2.39883	23.5399
2.41268	23.4452
2.42661	23.3508
2.44062	23.2567
2.45471	23.1629
2.46888	23.0695
2.48313	22.9764
2.49747	22.8836
2.51189	22.7912
2.52639	22.6991
2.54097	22.6073
2.55564	22.5158
2.5704	22.4246
2.58523	22.3338
2.60016	22.2432
2.61517	22.153
2.63027	22.0632
2.64545	21.9736
2.66073	21.8843
2.67609	21.7954
2.69153	21.7067
2.70707	21.6184
2.7227	21.5304
2.73842	21.4427
2.75423	21.3553
2.77013	21.2682
2.78612	21.1814
2.80221	21.095
2.81838	21.0088
2.83465	20.9229
2.85102	20.8374
2.86748	20.7521
2.88403	20.6672
2.90068	20.5825
2.91743	20.4981
2.93427	20.4141
2.95121	20.3303
2.96825	20.2469
2.98538	20.1637
3.00262	20.0808
3.01995	19.9982
3.03739	19.9159
3.05492	19.8339
3.07256	19.7522
3.0903	19.6708
3.10814	19.5897
3.12608	19.5089
3.14413	19.4283
3.16228	19.3481
3.18053	19.2681
3.1989	19.1884
3.21736	19.109
3.23594	19.0299
3.25462	18.951
3.27341	18.8725
3.2923	18.7942
3.31131	18.7162
3.33043	18.6385
3.34965	18.5611
3.36899	18.4839
3.38844	18.4071
3.408	18.3305
3.42768	18.2541
3.44747	18.1781
3.46737	18.1023
3.48739	18.0268
3.50752	17.9516
3.52777	17.8766
3.54813	17.802
3.56862	17.7275
3.58922	17.6534
3.60994	17.5795
3.63078	17.5059
3.65174	17.4326
3.67282	17.3595
3.69403	17.2867
3.71535	17.2142
3.7368	17.1419
3.75837	17.0699
3.78007	16.9981
3.80189	16.9266
3.82384	16.8554
3.84592	16.7844
3.86812	16.7137
3.89045	16.6433
3.91291	16.5731
3.9355	16.5031
3.95822	16.4335
3.98107	16.3641
4.00405	16.2949
4.02717	16.226
4.05042	16.1573
4.0738	16.0889
4.09732	16.0208
4.12098	15.9529
4.14477	15.8852
4.16869	15.8178
4.19276	15.7507
4.21697	15.6838
4.24131	15.6171
4.2658	15.5507
4.29042	15.4846
4.31519	15.4187
4.3401	15.353
4.36516	15.2876
4.39036	15.2224
4.4157	15.1575
4.4412	15.0928
4.46684	15.0284
4.49262	14.9642
4.51856	14.9002
4.54465	14.8365
4.57088	14.773
4.59727	14.7097
4.62381	14.6467
4.6505	14.584
4.67735	14.5214
4.70435	14.4591
4.73151	14.3971
4.75883	14.3352
4.7863	14.2736
4.81393	14.2123
4.84172	14.1512
4.86968	14.0903
4.89779	14.0296
4.92606	13.9692
4.9545	13.9089
4.9831	13.849
5.01187	13.7892
5.04081	13.7297
5.06991	13.6704
5.09918	13.6113
5.12861	13.5525
5.15822	13.4939
5.188	13.4355
5.21795	13.3773
5.24807	13.3194
5.27837	13.2616
5.30884	13.2041
5.33949	13.1468
5.37032	13.0898
5.40132	13.0329
5.4325	12.9763
5.46387	12.9199
5.49541	12.8637
5.52713	12.8078
5.55904	12.752
5.59114	12.6965
5.62341	12.6411
5.65588	12.586
5.68853	12.5311
5.72137	12.4765
5.7544	12.422
5.78762	12.3677
5.82103	12.3137
5.85464	12.2599
5.88844	12.2062
5.92243	12.1528
5.95662	12.0996
5.99101	12.0466
6.0256	11.9938
6.06038	11.9412
6.09537	11.8889
6.13056	11.8367
6.16595	11.7847
6.20155	11.7329
6.23735	11.6814
6.27336	11.63
6.30957	11.5789
6.346	11.5279
6.38263	11.4772
6.41948	11.4266
6.45654	11.3763
6.49382	11.3261
6.53131	11.2762
6.56901	11.2264
6.60693	11.1768
6.64508	11.1275
6.68344	11.0783
6.72202	11.0293
6.76083	10.9806
6.79986	10.932
6.83912	10.8836
6.8786	10.8354
6.91831	10.7874
6.95825	10.7396
6.99842	10.692
7.03882	10.6445
7.07946	10.5973
7.12033	10.5502
7.16143	10.5034
7.20278	10.4567
7.24436	10.4102
7.28618	10.3639
7.32825	10.3178
7.37055	10.2719
7.4131	10.2261
7.4559	10.1806
7.49894	10.1352
7.54223	10.09
7.58578	10.045
7.62957	10.0002
7.67361	9.95554
7.71792	9.91108
7.76247	9.8668
7.80728	9.82269
7.85236	9.77877
7.89769	9.73502
7.94328	9.69145
7.98914	9.64806
8.03526	9.60436
8.08165	9.56082
8.12831	9.51745
8.17523	9.47427
8.22243	9.43126
8.2699	9.38844
8.31764	9.3458
8.36566	9.30334
8.41395	9.26105
8.46253	9.21895
8.51138	9.17703
8.56052	9.13528
8.60994	9.09371
8.65964	9.05231
8.70964	9.01109
8.75992	8.97005
8.81049	8.92918
8.86135	8.88849
8.91251	8.84797
8.96396	8.81648
9.01571	8.7762
9.06776	8.73609
9.12011	8.69616
9.17276	8.6564
9.22571	8.61681
9.27897	8.57739
9.33254	8.53814
9.38642	8.49906
9.44061	8.46015
9.49511	8.42141
9.54993	8.38283
9.60506	8.34443
9.66051	8.30618
9.71628	8.26811
9.77237	8.2302
9.82879	8.19245
9.88553	8.15487
9.9426	8.11745
10	8.0802
10.0577	8.0431
10.1158	8.00617
10.1742	7.9694
10.2329	7.93279
10.292	7.89634
10.3514	7.86005
10.4112	7.82392
10.4713	7.78795
10.5317	7.75213
10.5925	7.71647
10.6537	7.68097
10.7152	7.64563
10.7771	7.61043
10.8393	7.5754
10.9018	7.54052
10.9648	7.50579
11.0281	7.47121
11.0917	7.43679
11.1558	7.40252
11.2202	7.3684
11.285	7.33443
11.3501	7.30061
11.4156	7.26694
11.4815	7.23342
11.5478	7.20005
11.6145	7.16682
11.6815	7.13374
11.749	7.10081
11.8168	7.06803
11.885	7.03539
11.9536	7.00289
12.0226	6.97054
12.0921	6.93834
12.1619	6.90627
12.2321	6.87435
12.3027	6.84257
12.3737	6.81094
12.4451	6.77944
12.517	6.74808
12.5893	6.71687
12.6619	6.68579
12.735	6.65485
12.8086	6.62405
12.8825	6.59339
12.9569	6.56287
13.0317	6.53248
13.1069	6.50222
13.1826	6.47211
13.2587	6.44212
13.3352	6.41228
13.4122	6.38256
13.4896	6.35298
13.5675	6.32353
13.6458	6.29421
13.7246	6.26503
13.8038	6.23597
13.8835	6.20705
13.9637	6.17826
14.0443	6.14959
14.1254	6.12106
14.2069	6.09265
14.2889	6.06437
14.3714	6.03622
14.4544	6.0082
14.5378	5.9803
14.6218	5.95253
14.7062	5.92488
14.7911	5.89736
14.8765	5.86996
14.9624	5.84268
15.0487	5.8183
15.1356	5.79122
15.223	5.76426
15.3109	5.73743
15.3993	5.71071
15.4882	5.68412
15.5776	5.65765
15.6675	5.63129
15.758	5.60506
15.8489	5.57895
15.9404	5.55295
16.0325	5.52707
16.125	5.50131
16.2181	5.47567
16.3117	5.45014
16.4059	5.42473
16.5006	5.39943
16.5959	5.37425
16.6917	5.34918
16.788	5.32423
16.885	5.29939
16.9824	5.27467
17.0805	5.25005
17.1791	5.22555
17.2783	5.20116
17.378	5.17688
17.4783	5.15271
17.5792	5.12866
17.6807	5.10471
17.7828	5.08087
17.8855	5.05714
17.9887	5.03352
18.0926	5.01
18.197	4.9866
18.3021	4.9633
18.4077	4.9401
18.514	4.91702
18.6209	4.89403
18.7284	4.87116
18.8365	4.84839
18.9452	4.82572
19.0546	4.80316
19.1646	4.7807
19.2752	4.75834
19.3865	4.73608
19.4984	4.71393
19.611	4.69188
19.7242	4.66993
19.8381	4.64808
19.9526	4.62633
20.0678	4.60468
20.1837	4.58313
20.3002	4.56168
20.4174	4.54033
20.5353	4.51908
20.6538	4.49792
20.773	4.47686
20.893	4.4559
21.0136	4.43504
21.1349	4.41591
21.2569	4.39521
21.3796	4.37461
21.503	4.3541
21.6272	4.33368
21.752	4.31336
21.8776	4.29313
22.0039	4.273
22.1309	4.25296
22.2587	4.23301
22.3872	4.21315
22.5165	4.19339
22.6464	4.17372
22.7772	4.15414
22.9087	4.13464
23.0409	4.11524
23.1739	4.09593
23.3077	4.07671
23.4423	4.05758
23.5776	4.03853
23.7137	4.01958
23.8506	4.00071
23.9883	3.98193
24.1268	3.96324
24.2661	3.94463
24.4062	3.92611
24.5471	3.90768
24.6888	3.88933
24.8313	3.87106
24.9747	3.85289
25.1189	3.83479
25.2639	3.81678
25.4097	3.79886
25.5564	3.78102
25.704	3.76326
25.8523	3.74558
26.0016	3.72798
26.1517	3.71047
26.3027	3.69304
26.4545	3.67569
26.6073	3.65842
26.7609	3.64123
26.9153	3.62413
27.0707	3.6071
27.227	3.59015
27.3842	3.57328
27.5423	3.55649
27.7013	3.53978
27.8612	3.52314
28.0221	3.50659
28.1838	3.49011
28.3465	3.47371
28.5102	3.45738
28.6748	3.44113
28.8403	3.42496
29.0068	3.40886
29.1743	3.39284
29.3427	3.37689
29.5121	3.36102
29.6825	3.34522
29.8538	3.3295
30.0262	3.31385
30.1995	3.29827
30.3739	3.28277
30.5492	3.26735
30.7256	3.25199
30.903	3.23671
31.0814	3.2215
31.2608	3.20637
31.4413	3.1913
31.6228	3.1763
31.8053	3.16138
31.989	3.14652
32.1736	3.13174
32.3594	3.11702
32.5462	3.10237
32.7341	3.08779
32.923	3.07328
33.1131	3.05884
33.3043	3.04446
33.4965	3.03016
33.6899	3.01592
33.8844	3.00174
34.08	2.98764
34.2768	2.9736
34.4747	2.95962
34.6737	2.94571
34.8739	2.93187
35.0752	2.91809
35.2777	2.90438
35.4813	2.89073
35.6862	2.87715
35.8922	2.86363
36.0994	2.85017
36.3078	2.83678
36.5174	2.82345
36.7282	2.81018
36.9403	2.79697
37.1535	2.78383
37.368	2.77075
37.5837	2.75773
37.8007	2.74477
38.0189	2.73188
38.2384	2.71904
38.4592	2.70627
38.6812	2.69355
38.9045	2.6809
39.1291	2.6683
39.355	2.65577
39.5822	2.64329
39.8107	2.63087
40.0405	2.61852
40.2717	2.60622
40.5042	2.59398
40.738	2.58179
40.9732	2.56967
41.2098	2.5576
41.4477	2.54559
41.6869	2.53363
41.9276	2.52173
42.1697	2.50989
42.4131	2.49811
42.658	2.48638
42.9042	2.47471
43.1519	2.46309
43.401	2.45152
43.6516	2.44002
43.9036	2.42856
44.157	2.41716
44.412	2.40582
44.6684	2.39453
44.9262	2.38329
45.1856	2.37211
45.4465	2.36098
45.7088	2.3499
45.9727	2.33887
46.2381	2.3279
46.505	2.31698
46.7735	2.30611
47.0435	2.2953
47.3151	2.28453
47.5883	2.27382
47.863	2.26315
48.1393	2.25254
48.4172	2.24198
48.6968	2.23147
48.9779	2.22101
49.2606	2.2106
49.545	2.20024
49.831	2.18992
50.1187	2.17966
50.4081	2.16945
50.6991	2.15928
50.9918	2.14917
51.2861	2.1391
51.5822	2.12908
51.88	2.11911
52.1795	2.10918
52.4807	2.09931
52.7837	2.08948
53.0884	2.0797
53.3949	2.06996
53.7032	2.06027
54.0132	2.05063
54.325	2.04103
54.6387	2.03148
54.9541	2.02198
55.2713	2.01252
55.5904	2.00311
55.9114	1.99374
56.2341	1.98442
56.5588	1.97514
56.8853	1.9659
57.2137	1.95671
57.544	1.94757
57.8762	1.93847
58.2103	1.92941
58.5464	1.92039
58.8844	1.91142
59.2243	1.9025
59.5662	1.89361
59.9101	1.88477
60.256	1.87597
60.6038	1.86721
60.9537	1.8585
61.3056	1.84982
61.6595	1.84119
62.0155	1.8326
62.3735	1.82405
62.7336	1.81555
63.0957	1.80708
63.46	1.79865
63.8263	1.79027
64.1948	1.78193
64.5654	1.77362
64.9382	1.76536
65.3131	1.75713
65.6901	1.74895
66.0693	1.7408
66.4508	1.7327
66.8344	1.72463
67.2202	1.71661
67.6083	1.70862
67.9986	1.70067
68.3912	1.69276
68.786	1.68488
69.1831	1.67705
69.5825	1.66925
69.9842	1.66149
70.3882	1.65377
70.7946	1.64609
71.2033	1.63844
71.6143	1.63083
72.0278	1.62326
72.4436	1.61572
72.8618	1.60822
73.2825	1.60076
73.7055	1.59333
74.131	1.58594
74.559	1.57858
74.9894	1.57126
75.4223	1.56398
75.8578	1.55673
76.2957	1.54952
76.7361	1.54234
77.1792	1.53519
77.6247	1.52809
78.0728	1.52101
78.5236	1.51397
78.9769	1.50697
79.4328	1.49999
79.8914	1.49306
80.3526	1.48615
80.8165	1.47928
81.2831	1.47245
81.7523	1.46564
82.2243	1.45887
82.699	1.45214
83.1764	1.44543
83.6566	1.43876
84.1395	1.43212
84.6253	1.42551
85.1138	1.41894
85.6052	1.4124
86.0994	1.40589
86.5964	1.39941
87.0964	1.39296
87.5992	1.38655
88.1049	1.38016
88.6135	1.37381
89.1251	1.36749
89.6396	1.3612
90.1571	1.35494
90.6776	1.34871
91.2011	1.34251
91.7276	1.33634
92.2571	1.3302
92.7897	1.32409
93.3254	1.31801
93.8642	1.31197
94.4061	1.30595
94.9511	1.29996
95.4993	1.294
96.0506	1.28807
96.6051	1.28216
97.1628	1.27629
97.7237	1.27045
98.2879	1.26463
98.8553	1.25885
99.426	1.25309
100	1.24736
100.577	1.24166
101.158	1.23598
101.742	1.23034
102.329	1.22472
102.92	1.21913
103.514	1.21357
104.112	1.20803
104.713	1.20252
105.317	1.19704
105.925	1.19159
106.537	1.18616
107.152	1.18076
107.771	1.17538
108.393	1.17004
109.018	1.16472
109.648	1.15942
110.281	1.15415
110.917	1.14891
111.558	1.14369
112.202	1.1385
112.85	1.13334
113.501	1.1282
114.156	1.12308
114.815	1.11799
115.478	1.11293
116.145	1.10789
116.815	1.10288
117.49	1.09789
118.168	1.09293
118.85	1.08799
119.536	1.08307
120.226	1.07818
120.921	1.07331
121.619	1.06847
122.321	1.06365
123.027	1.05886
123.737	1.05409
124.451	1.04934
125.17	1.04462
125.893	1.03991
126.619	1.03524
127.35	1.03058
128.086	1.02595
128.825	1.02135
129.569	1.01676
130.317	1.0122
131.069	1.00766
131.826	1.00314
132.587	0.998651
133.352	0.994179
134.122	0.98973
134.896	0.985303
135.675	0.980898
136.458	0.976515
137.246	0.972153
138.038	0.967814
138.835	0.963496
139.637	0.9592
140.443	0.954925
141.254	0.950671
142.069	0.946439
142.889	0.942228
143.714	0.938038
144.544	0.933869
145.378	0.92972
146.218	0.925593
147.062	0.921486
147.911	0.917399
148.765	0.913333
149.624	0.909288
150.487	0.905263
151.356	0.901257
152.23	0.897272
153.109	0.893307
153.993	0.889362
154.882	0.885437
155.776	0.881531
156.675	0.877645
157.58	0.873778
158.489	0.869931
159.404	0.866103
160.325	0.862295
161.25	0.858505
162.181	0.854735
163.117	0.850983
164.059	0.847251
165.006	0.843537
165.959	0.839842
166.917	0.836165
167.88	0.832507
168.85	0.828868
169.824	0.825246
170.805	0.821643
171.791	0.818059
172.783	0.814492
173.78	0.810943
174.783	0.807412
175.792	0.803899
176.807	0.800404
177.828	0.796927
178.855	0.793467
179.887	0.790024
180.926	0.786599
181.97	0.783191
183.021	0.779801
184.077	0.776427
185.14	0.773071
186.209	0.769732
187.284	0.76641
188.365	0.763104
189.452	0.759815
190.546	0.756543
191.646	0.753288
192.752	0.750049
193.865	0.746826
194.984	0.74362
196.11	0.74043
197.242	0.737257
198.381	0.734099
199.526	0.730958
200.678	0.727832
201.837	0.724723
203.002	0.721629
204.174	0.718551
205.353	0.715489
206.538	0.712442
207.73	0.709411
208.93	0.706396
210.136	0.703395
211.349	0.70041
212.569	0.697441
213.796	0.694486
215.03	0.691547
216.272	0.688622
217.52	0.685713
218.776	0.682818
220.039	0.679938
221.309	0.677073
222.587	0.674223
223.872	0.671387
225.165	0.668566
226.464	0.665759
227.772	0.662967
229.087	0.660189
230.409	0.657425
231.739	0.654675
233.077	0.65194
234.423	0.649218
235.776	0.646511
237.137	0.643817
238.506	0.641138
239.883	0.638472
241.268	0.63582
242.661	0.633181
244.062	0.630556
245.471	0.627945
246.888	0.625347
248.313	0.622763
249.747	0.620191
251.189	0.617634
252.639	0.615089
254.097	0.612557
255.564	0.610039
257.04	0.607533
258.523	0.605041
260.016	0.602561
261.517	0.600095
263.027	0.597641
264.545	0.5952
266.073	0.592771
267.609	0.590355
269.153	0.587952
270.707	0.585561
272.27	0.583182
273.842	0.580816
275.423	0.578462
277.013	0.576121
278.612	0.573791
280.221	0.571474
281.838	0.569169
283.465	0.566875
285.102	0.564594
286.748	0.562325
288.403	0.560067
290.068	0.557821
291.743	0.555587
293.427	0.553365
295.121	0.551154
296.825	0.548955
298.538	0.546767
300.262	0.544591
301.995	0.542426
303.739	0.540273
305.492	0.538131
307.256	0.536
309.03	0.53388
310.814	0.531771
312.608	0.529674
314.413	0.527587
316.228	0.525511
318.053	0.523447
319.89	0.521393
321.736	0.51935
323.594	0.517318
325.462	0.515296
327.341	0.513285
329.23	0.511285
331.131	0.509295
333.043	0.507316
334.965	0.505348
336.899	0.503389
338.844	0.501441
340.8	0.499504
342.768	0.497576
344.747	0.495659
346.737	0.493752
348.739	0.491855
350.752	0.489969
352.777	0.488092
354.813	0.486225
356.862	0.484368
358.922	0.482521
360.994	0.480684
363.078	0.478857
365.174	0.477039
367.282	0.475231
369.403	0.473433
371.535	0.471644
373.68	0.469865
375.837	0.468095
378.007	0.466335
380.189	0.464585
382.384	0.462843
384.592	0.461111
386.812	0.459388
389.045	0.457675
391.291	0.455971
393.55	0.454276
395.822	0.45259
398.107	0.450913
400.405	0.449245
402.717	0.447586
405.042	0.445936
407.38	0.444295
409.732	0.442662
412.098	0.441039
414.477	0.439424
416.869	0.437818
419.276	0.436221
421.697	0.434633
424.131	0.433053
426.58	0.431481
429.042	0.429918
431.519	0.428364
434.01	0.426818
436.516	0.42528
439.036	0.423751
441.57	0.42223
444.12	0.420718
446.684	0.419214
449.262	0.417717
451.856	0.416229
454.465	0.41475
457.088	0.413278
459.727	0.411814
462.381	0.410359
465.05	0.408911
467.735	0.407471
470.435	0.40604
473.151	0.404616
475.883	0.403199
478.63	0.401791
481.393	0.400391
484.172	0.398998
486.968	0.397613
489.779	0.396235
492.606	0.394865
495.45	0.393503
498.31	0.392148
501.187	0.390801
504.081	0.389461
506.991	0.388129
509.918	0.386804
512.861	0.385486
515.822	0.384176
518.8	0.382873
521.795	0.381577
524.807	0.380289
527.837	0.379007
530.884	0.377733
533.949	0.376466
537.032	0.375206
540.132	0.373953
543.25	0.372708
546.387	0.371469
549.541	0.370237
552.713	0.369012
555.904	0.367794
559.114	0.366583
562.341	0.365378
565.588	0.364181
568.853	0.36299
572.137	0.361806
575.44	0.360628
578.762	0.359458
582.103	0.358294
585.464	0.357136
588.844	0.355985
592.243	0.354841
595.662	0.353703
599.101	0.352572
602.56	0.351447
606.038	0.350329
609.537	0.349217
613.056	0.348111
616.595	0.347011
620.155	0.345918
623.735	0.344832
627.336	0.343751
630.957	0.342677
634.6	0.341609
638.263	0.340547
641.948	0.339491
645.654	0.338441
649.382	0.337398
653.131	0.33636
656.901	0.335329
660.693	0.334303
664.508	0.333283
668.344	0.33227
672.202	0.331262
676.083	0.33026
679.986	0.329264
683.912	0.328274
687.86	0.327289
691.831	0.326311
695.825	0.325338
699.842	0.324371
703.882	0.323409
707.946	0.322453
712.033	0.321503
716.143	0.320559
720.278	0.31962
724.436	0.318686
728.618	0.317758
732.825	0.316836
737.055	0.315919
741.31	0.315007
745.59	0.314101
749.894	0.313201
754.223	0.312306
758.578	0.311416
762.957	0.310531
767.361	0.309652
771.792	0.308778
776.247	0.307909
780.728	0.307046
785.236	0.306188
789.769	0.305335
794.328	0.304487
798.914	0.303644
803.526	0.302807
808.165	0.301974
812.831	0.301147
817.523	0.300324
822.243	0.299507
826.99	0.298694
831.764	0.297887
836.566	0.297084
841.395	0.296287
846.253	0.295494
851.138	0.294707
856.052	0.293924
860.994	0.293146
865.964	0.292372
870.964	0.291604
875.992	0.29084
881.049	0.290081
886.135	0.289327
891.251	0.288578
896.396	0.287833
901.571	0.287093
906.776	0.286357
912.011	0.285627
917.276	0.2849
922.571	0.284179
927.897	0.283462
933.254	0.282749
938.642	0.282041
944.061	0.281338
949.511	0.280638
954.993	0.279944
960.506	0.279254
966.051	0.278568
971.628	0.277887
977.237	0.27721
982.879	0.276537
988.553	0.275869
994.26	0.275205
1000	0.274545
1005.77	0.27389
1011.58	0.273238
1017.42	0.272592
1023.29	0.271949
1029.2	0.27131
1035.14	0.270676
1041.12	0.270046
1047.13	0.26942
1053.17	0.268798
1059.25	0.26818
1065.37	0.267567
1071.52	0.266957
1077.71	0.266351
1083.93	0.26575
1090.18	0.265152
1096.48	0.264559
1102.81	0.263969
1109.17	0.263384
1115.58	0.262802
1122.02	0.262224
1128.5	0.26165
1135.01	0.261081
1141.56	0.260514
1148.15	0.259952
1154.78	0.259394
1161.45	0.258839
1168.15	0.258289
1174.9	0.257742
1181.68	0.257198
1188.5	0.256659
1195.36	0.256123
1202.26	0.255591
1209.21	0.255063
1216.19	0.254538
1223.21	0.254017
1230.27	0.2535
1237.37	0.252986
1244.51	0.252476
1251.7	0.25197
1258.93	0.251467
1266.19	0.250967
1273.5	0.250471
1280.86	0.249979
1288.25	0.249491
1295.69	0.249005
1303.17	0.248524
1310.69	0.248045
1318.26	0.24757
1325.87	0.247099
1333.52	0.246631
1341.22	0.246167
1348.96	0.245705
1356.75	0.245248
1364.58	0.244793
1372.46	0.244342
1380.38	0.243894
1388.35	0.24345
1396.37	0.243009
1404.43	0.242571
1412.54	0.242137
1420.69	0.241705
1428.89	0.241277
1437.14	0.240852
1445.44	0.240431
1453.78	0.240012
1462.18	0.239597
1470.62	0.239185
1479.11	0.238776
1487.65	0.238371
1496.24	0.237968
1504.87	0.237569
1513.56	0.237172
1522.3	0.236779
1531.09	0.236389
1539.93	0.236001
1548.82	0.235617
1557.76	0.235236
1566.75	0.234858
1575.8	0.234483
1584.89	0.234111
1594.04	0.233742
1603.25	0.233376
1612.5	0.233013
1621.81	0.232652
1631.17	0.232295
1640.59	0.231941
1650.06	0.231589
1659.59	0.23124
1669.17	0.230895
1678.8	0.230552
1688.5	0.230212
1698.24	0.229875
1708.05	0.22954
1717.91	0.229209
1727.83	0.22888
1737.8	0.228554
1747.83	0.228231
1757.92	0.22791
1768.07	0.227592
1778.28	0.227277
1788.55	0.226965
1798.87	0.226656
1809.26	0.226349
1819.7	0.226044
1830.21	0.225743
1840.77	0.225444
1851.4	0.225148
1862.09	0.224853
1872.84	0.224551
1883.65	0.224251
1894.52	0.223954
1905.46	0.223659
1916.46	0.223367
1927.52	0.223078
1938.65	0.22279
1949.84	0.222506
1961.1	0.222223
1972.42	0.221943
1983.81	0.221666
1995.26	0.221391
2006.78	0.221118
2018.37	0.220848
2030.02	0.220579
2041.74	0.220314
2053.53	0.22005
2065.38	0.219789
2077.3	0.219531
2089.3	0.219274
2101.36	0.21902
2113.49	0.218768
2125.69	0.218519
2137.96	0.218271
2150.3	0.218026
2162.72	0.217783
2175.2	0.217543
2187.76	0.217304
2200.39	0.217068
2213.09	0.216834
2225.87	0.216602
2238.72	0.216372
2251.65	0.216145
2264.64	0.21592
2277.72	0.215696
2290.87	0.215475
2304.09	0.215256
2317.39	0.215039
2330.77	0.214825
2344.23	0.214612
2357.76	0.214401
2371.37	0.214193
2385.06	0.213986
2398.83	0.213782
2412.68	0.21358
2426.61	0.213379
2440.62	0.213181
2454.71	0.212985
2468.88	0.21279
2483.13	0.212598
2497.47	0.212408
2511.89	0.212219
2526.39	0.212033
2540.97	0.211848
2555.64	0.211666
2570.4	0.211485
2585.23	0.211306
2600.16	0.21113
2615.17	0.210955
2630.27	0.210782
2645.45	0.210611
2660.73	0.210441
2676.09	0.210274
2691.53	0.210109
2707.07	0.209945
2722.7	0.209783
2738.42	0.209623
2754.23	0.209465
2770.13	0.209309
2786.12	0.209154
2802.21	0.209001
2818.38	0.20885
2834.65	0.208701
2851.02	0.208554
2867.48	0.208408
2884.03	0.208264
2900.68	0.208122
2917.43	0.207981
2934.27	0.207842
2951.21	0.207705
2968.25	0.20757
2985.38	0.207436
3002.62	0.207304
3019.95	0.207174
3037.39	0.207045
3054.92	0.206918
3072.56	0.206793
3090.3	0.206669
3108.14	0.206547
3126.08	0.206427
3144.13	0.206308
3162.28	0.20619
3180.53	0.206075
3198.9	0.205961
3217.36	0.205848
3235.94	0.205737
3254.62	0.205628
3273.41	0.20552
3292.3	0.205414
3311.31	0.205309
3330.43	0.205206
3349.65	0.205104
3368.99	0.205004
3388.44	0.204905
3408	0.204808
3427.68	0.204713
3447.47	0.204618
3467.37	0.204526
3487.39	0.204434
3507.52	0.204345
3527.77	0.204256
3548.13	0.204169
3568.62	0.204084
3589.22	0.204
3609.94	0.203917
3630.78	0.203836
3651.74	0.203756
3672.82	0.203678
3694.03	0.203601
3715.35	0.203525
3736.8	0.203451
3758.37	0.203378
3780.07	0.203306
3801.89	0.203236
3823.84	0.203167
3845.92	0.203099
3868.12	0.203033
3890.45	0.202968
3912.91	0.202905
3935.5	0.202842
3958.22	0.202781
3981.07	0.202721
4004.05	0.202663
4027.17	0.202606
4050.42	0.20255
4073.8	0.202495
4097.32	0.202442
4120.98	0.20239
4144.77	0.202339
4168.69	0.202289
4192.76	0.20224
4216.97	0.202193
4241.31	0.202147
4265.8	0.202102
4290.42	0.202058
4315.19	0.202016
4340.1	0.201975
4365.16	0.201934
4390.36	0.201895
4415.7	0.201858
4441.2	0.201821
4466.84	0.201785
4492.62	0.201751
4518.56	0.201718
4544.65	0.201686
4570.88	0.201654
4597.27	0.201625
4623.81	0.201596
4650.5	0.201568
4677.35	0.201541
4704.35	0.201516
4731.51	0.201491
4758.83	0.201468
4786.3	0.201445
4813.93	0.201424
4841.72	0.201404
4869.68	0.201385
4897.79	0.201366
4926.06	0.201349
4954.5	0.201333
4983.1	0.201318
5011.87	0.201304
5040.81	0.201291
5069.91	0.201279
5099.18	0.201268
5128.61	0.201257
5158.22	0.201248
5188	0.20124
5217.95	0.201233
5248.07	0.201227
5278.37	0.201221
5308.84	0.201217
5339.49	0.201213
5370.32	0.201211
5401.32	0.201209
5432.5	0.201209
5463.87	0.201209
5495.41	0.20121
5527.13	0.201212
5559.04	0.201215
5591.14	0.201219
5623.41	0.201224
5655.88	0.201229
5688.53	0.201236
5721.37	0.201243
5754.4	0.201252
5787.62	0.201261
5821.03	0.201271
5854.64	0.201281
5888.44	0.201293
5922.43	0.201306
5956.62	0.201319
5991.01	0.201333
6025.6	0.201348
6060.38	0.201364
6095.37	0.20138
6130.56	0.201398
6165.95	0.201416
6201.55	0.201435
6237.35	0.201454
6273.36	0.201475
6309.57	0.201496
6346	0.201518
6382.63	0.201541
6419.48	0.201564
6456.54	0.201589
6493.82	0.201614
6531.31	0.201639
6569.01	0.201666
6606.93	0.201693
6645.08	0.201721
6683.44	0.20175
6722.02	0.201779
6760.83	0.201809
6799.86	0.20184
6839.12	0.201872
6878.6	0.201904
6918.31	0.201937
6958.25	0.20197
6998.42	0.202005
7038.82	0.202039
7079.46	0.202075
7120.33	0.202111
7161.43	0.202148
7202.78	0.202186
7244.36	0.202224
7286.18	0.202263
7328.25	0.202302
7370.55	0.202342
7413.1	0.202383
7455.9	0.202425
7498.94	0.202466
7542.23	0.202509
7585.78	0.202552
7629.57	0.202596
7673.61	0.202641
7717.92	0.202686
7762.47	0.202731
7807.28	0.202777
7852.36	0.202824
7897.69	0.202871
7943.28	0.202919
7989.14	0.202968
8035.26	0.203017
8081.65	0.203066
8128.31	0.203117
8175.23	0.203167
8222.43	0.203219
8269.9	0.20327
8317.64	0.203323
8365.66	0.203376
8413.95	0.203429
8462.53	0.203483
8511.38	0.203537
8560.52	0.203592
8609.94	0.203648
8659.64	0.203704
8709.64	0.20376
8759.92	0.203817
8810.49	0.203875
8861.35	0.203933
8912.51	0.203991
8963.96	0.20405
9015.71	0.204109
9067.76	0.204169
9120.11	0.204229
9172.76	0.20429
9225.71	0.204352
9278.97	0.204413
9332.54	0.204475
9386.42	0.204538
9440.61	0.204601
9495.11	0.204665
9549.93	0.204729
9605.06	0.204793
9660.51	0.204858
9716.28	0.204923
9772.37	0.204989
9828.79	0.205055
9885.53	0.205121
9942.6	0.205188
10000	0.205256
10057.7	0.205323
10115.8	0.205391
10174.2	0.20546
10232.9	0.205529
10292	0.205598
10351.4	0.205668
10411.2	0.205738
10471.3	0.205808
10531.7	0.205879
10592.5	0.205951
10653.7	0.206022
10715.2	0.206094
10777.1	0.206166
10839.3	0.206239
10901.8	0.206312
10964.8	0.206385
11028.1	0.206459
11091.7	0.206533
11155.8	0.206608
11220.2	0.206682
11285	0.206758
11350.1	0.206833
11415.6	0.206909
11481.5	0.206985
11547.8	0.207061
11614.5	0.207138
11681.5	0.207215
11749	0.207292
11816.8	0.20737
11885	0.207448
11953.6	0.207526
12022.6	0.207605
12092.1	0.207684
12161.9	0.207763
12232.1	0.207842
12302.7	0.207922
12373.7	0.208002
12445.1	0.208083
12517	0.208163
12589.3	0.208244
12661.9	0.208325
12735	0.208407
12808.6	0.208488
12882.5	0.20857
12956.9	0.208653
13031.7	0.208735
13106.9	0.208818
13182.6	0.208901
13258.7	0.208984
13335.2	0.209068
13412.2	0.209152
13489.6	0.209236
13567.5	0.20932
13645.8	0.209404
13724.6	0.209489
13803.8	0.209574
13883.5	0.209659
13963.7	0.209745
14044.3	0.20983
14125.4	0.209916
14206.9	0.210002
14288.9	0.210089
14371.4	0.210175
14454.4	0.210262
14537.8	0.210349
14621.8	0.210436
14706.2	0.210524
14791.1	0.210611
14876.5	0.210699
14962.4	0.210787
15048.7	0.210875
15135.6	0.210964
15223	0.211052
15310.9	0.211141
15399.3	0.21123
15488.2	0.211319
15577.6	0.211408
15667.5	0.211498
15758	0.211588
15848.9	0.211678
15940.4	0.211768
16032.5	0.211858
16125	0.211948
16218.1	0.212039
16311.7	0.21213
16405.9	0.21222
16500.6	0.212312
16595.9	0.212403
16691.7	0.212494
16788	0.212586
16885	0.212677
16982.4	0.212769
17080.5	0.212861
17179.1	0.212953
17278.3	0.213046
17378	0.213138
17478.3	0.213231
17579.2	0.213324
17680.7	0.213416
17782.8	0.213509
17885.5	0.213603
17988.7	0.213696
18092.6	0.213789
18197	0.213883
18302.1	0.213977
18407.7	0.21407
18514	0.214164
18620.9	0.214258
18728.4	0.214352
18836.5	0.214447
18945.2	0.214541
19054.6	0.214636
19164.6	0.21473
19275.2	0.214825
19386.5	0.21492
19498.4	0.215015
19611	0.21511
19724.2	0.215205
19838.1	0.215301
19952.6	0.215396
20067.8	0.215491
20183.7	0.215587
20300.2	0.215683
20417.4	0.215779
20535.3	0.215875
20653.8	0.215971
20773	0.216067
20893	0.216163
21013.6	0.216259
21134.9	0.216355
21256.9	0.216452
21379.6	0.216548
21503	0.216645
21627.2	0.216742
21752	0.216838
21877.6	0.216935
22003.9	0.217032
22130.9	0.217129
22258.7	0.217226
22387.2	0.217324
22516.5	0.217421
22646.4	0.217518
22777.2	0.217615
22908.7	0.217713
23040.9	0.21781
23173.9	0.217908
23307.7	0.218006
23442.3	0.218103
23577.6	0.218201
23713.7	0.218299
23850.6	0.218397
23988.3	0.218495
24126.8	0.218593
24266.1	0.218691
24406.2	0.218789
24547.1	0.218887
24688.8	0.218985
24831.3	0.219084
24974.7	0.219182
25118.9	0.219281
25263.9	0.219379
25409.7	0.219477
25556.4	0.219576
25704	0.219675
25852.3	0.219773
26001.6	0.219872
26151.7	0.219971
26302.7	0.220069
26454.5	0.220168
26607.3	0.220267
26760.9	0.220366
26915.3	0.220465
27070.7	0.220564
27227	0.220663
27384.2	0.220762
27542.3	0.220861
27701.3	0.22096
27861.2	0.221059
28022.1	0.221158
28183.8	0.221257
28346.5	0.221356
28510.2	0.221456
28674.8	0.221555
28840.3	0.221654
29006.8	0.221754
29174.3	0.221853
29342.7	0.221952
29512.1	0.222052
29682.5	0.222151
29853.8	0.22225
30026.2	0.22235
30199.5	0.222449
30373.9	0.222549
30549.2	0.222648
30725.6	0.222748
30903	0.222847
31081.4	0.222947
31260.8	0.223047
31441.3	0.223146
31622.8	0.223246
31805.3	0.223345
31989	0.223445
32173.6	0.223545
32359.4	0.223644
32546.2	0.223744
32734.1	0.223844
32923	0.223943
33113.1	0.224043
33304.3	0.224143
33496.5	0.224242
33689.9	0.224342
33884.4	0.224442
34080	0.224541
34276.8	0.224641
34474.7	0.224741
34673.7	0.224841
34873.9	0.22494
35075.2	0.22504
35277.7	0.22514
35481.3	0.225239
35686.2	0.225339
35892.2	0.225439
36099.4	0.225539
36307.8	0.225638
36517.4	0.225738
36728.2	0.225838
36940.3	0.225937
37153.5	0.226037
37368	0.226137
37583.7	0.226237
37800.7	0.226336
38018.9	0.226436
38238.4	0.226536
38459.2	0.226635
38681.2	0.226735
38904.5	0.226835
39129.1	0.226934
39355	0.227034
39582.2	0.227134
39810.7	0.227233
40040.5	0.227333
40271.7	0.227432
40504.2	0.227532
40738	0.227631
40973.2	0.227731
41209.8	0.227831
41447.7	0.22793
41686.9	0.22803
41927.6	0.228129
42169.7	0.228229
42413.1	0.228328
42658	0.228428
42904.2	0.228527
43151.9	0.228626
43401	0.228726
43651.6	0.228825
43903.6	0.228925
44157	0.229024
44412	0.229123
44668.4	0.229223
44926.2	0.229322
45185.6	0.229421
45446.5	0.22952
45708.8	0.22962
45972.7	0.229719
46238.1	0.229818
46505	0.229917
46773.5	0.230016
47043.5	0.230116
47315.1	0.230215
47588.3	0.230314
47863	0.230413
48139.3	0.230512
48417.2	0.230611
48696.8	0.23071
48977.9	0.230809
49260.6	0.230908
49545	0.231007
49831	0.231106
50118.7	0.231205
50408.1	0.231304
50699.1	0.231402
50991.8	0.231501
51286.1	0.2316
51582.2	0.231699
51880	0.231798
52179.5	0.231896
52480.7	0.231995
52783.7	0.232094
53088.4	0.232192
53394.9	0.232291
53703.2	0.232389
54013.2	0.232488
54325	0.232587
54638.7	0.232685
54954.1	0.232784
55271.3	0.232882
55590.4	0.23298
55911.4	0.233079
56234.1	0.233177
56558.8	0.233275
56885.3	0.233374
57213.7	0.233472
57544	0.23357
57876.2	0.233668
58210.3	0.233767
58546.4	0.233865
58884.4	0.233963
59224.3	0.234061
59566.2	0.234159
59910.1	0.234257
60256	0.234355
60603.8	0.234453
60953.7	0.234551
61305.6	0.234649
61659.5	0.234747
62015.5	0.234845
62373.5	0.234943
62733.6	0.23504
63095.7	0.235138
63460	0.235236
63826.3	0.235333
64194.8	0.235431
64565.4	0.235529
64938.2	0.235626
65313.1	0.235724
65690.1	0.235821
66069.3	0.235919
66450.8	0.236016
66834.4	0.236114
67220.2	0.236211
67608.3	0.236309
67998.6	0.236406
68391.2	0.236503
68786	0.236601
69183.1	0.236698
69582.5	0.236795
69984.2	0.236892
70388.2	0.236989
70794.6	0.237087
71203.3	0.237184
71614.3	0.237281
72027.8	0.237378
72443.6	0.237475
72861.8	0.237572
73282.5	0.237668
73705.5	0.237765
74131	0.237862
74559	0.237959
74989.4	0.238056
75422.3	0.238153
75857.8	0.238249
76295.7	0.238346
76736.1	0.238443
77179.2	0.238539
77624.7	0.238636
78072.8	0.238732
78523.6	0.238829
78976.9	0.238925
79432.8	0.239022
79891.4	0.239118
80352.6	0.239215
80816.5	0.239311
81283.1	0.239407
81752.3	0.239504
82224.3	0.2396
82699	0.239696
83176.4	0.239792
83656.6	0.239888
84139.5	0.239985
84625.3	0.240081
85113.8	0.240177
85605.2	0.240273
86099.4	0.240369
86596.4	0.240465
87096.4	0.240561
87599.2	0.240656
88104.9	0.240752
88613.5	0.240848
89125.1	0.240944
89639.6	0.24104
90157.1	0.241135
90677.6	0.241231
91201.1	0.241327
91727.6	0.241422
92257.1	0.241518
92789.7	0.241613
93325.4	0.241709
93864.2	0.241804
94406.1	0.2419
94951.1	0.241995
95499.3	0.242091
96050.6	0.242186
96605.1	0.242281
97162.8	0.242377
97723.7	0.242472
98287.9	0.242567
98855.3	0.242662
99426	0.242758
100000	0.242853
100577	0.242948
101158	0.243043
101742	0.243138
102329	0.243233
102920	0.243328
103514	0.243423
104112	0.243518
104713	0.243613
105317	0.243708
105925	0.243802
106537	0.243897
107152	0.243992
107771	0.244087
108393	0.244181
109018	0.244276
109648	0.244371
110281	0.244465
110917	0.24456
111558	0.244654
112202	0.244749
112850	0.244843
113501	0.244938
114156	0.245032
114815	0.245127
115478	0.245221
116145	0.245315
116815	0.24541
117490	0.245504
118168	0.245598
118850	0.245692
119536	0.245787
120226	0.245881
120921	0.245975
121619	0.246069
122321	0.246163
123027	0.246257
123737	0.246351
124451	0.246445
125170	0.246539
125893	0.246633
126619	0.246727
127350	0.246821
128086	0.246915
128825	0.247008
129569	0.247102
130317	0.247196
131069	0.24729
131826	0.247383
132587	0.247477
133352	0.247571
134122	0.247664
134896	0.247758
135675	0.247852
136458	0.247945
137246	0.248039
138038	0.248132
138835	0.248226
139637	0.248319
140443	0.248413
141254	0.248506
142069	0.248599
142889	0.248693
143714	0.248786
144544	0.248879
145378	0.248973
146218	0.249066
147062	0.249159
147911	0.249252
148765	0.249345
149624	0.249438
150487	0.249532
151356	0.249625
152230	0.249718
153109	0.249811
153993	0.249904
154882	0.249997
155776	0.25009
156675	0.250183
157580	0.250276
158489	0.250369
159404	0.250461
160325	0.250554
161250	0.250647
162181	0.25074
163117	0.250833
164059	0.250926
165006	0.251018
165959	0.251111
166917	0.251204
167880	0.251296
168850	0.251389
169824	0.251482
170805	0.251574
171791	0.251667
172783	0.25176
173780	0.251852
174783	0.251945
175792	0.252037
176807	0.25213
177828	0.252222
178855	0.252315
179887	0.252407
180926	0.252499
181970	0.252592
183021	0.252684
184077	0.252777
185140	0.252869
186209	0.252961
187284	0.253054
188365	0.253146
189452	0.253238
190546	0.25333
191646	0.253423
192752	0.253515
193865	0.253607
194984	0.253699
196110	0.253791
197242	0.253884
198381	0.253976
199526	0.254068
200678	0.25416
201837	0.254252
203002	0.254344
204174	0.254436
205353	0.254528
206538	0.25462
207730	0.254712
208930	0.254804
210136	0.254896
211349	0.254988
212569	0.25508
213796	0.255172
215030	0.255264
216272	0.255356
217520	0.255447
218776	0.255539
220039	0.255631
221309	0.255723
222587	0.255815
223872	0.255906
225165	0.255998
226464	0.25609
227772	0.256182
229087	0.256273
230409	0.256365
231739	0.256457
233077	0.256548
234423	0.25664
235776	0.256731
237137	0.256823
238506	0.256914
239883	0.257006
241268	0.257098
242661	0.257189
244062	0.25728
245471	0.257372
246888	0.257463
248313	0.257555
249747	0.257646
251189	0.257737
252639	0.257829
254097	0.25792
255564	0.258011
257040	0.258103
258523	0.258194
260016	0.258285
261517	0.258376
263027	0.258467
264545	0.258559
266073	0.25865
267609	0.258741
269153	0.258832
270707	0.258923
272270	0.259014
273842	0.259105
275423	0.259196
277013	0.259287
278612	0.259378
280221	0.259469
281838	0.25956
283465	0.25965
285102	0.259741
286748	0.259832
288403	0.259923
290068	0.260014
291743	0.260104
293427	0.260195
295121	0.260286
296825	0.260376
298538	0.260467
300262	0.260558
301995	0.260648
303739	0.260739
305492	0.260829
307256	0.26092
309030	0.26101
310814	0.261101
312608	0.261191
314413	0.261281
316228	0.261372
318053	0.261462
319890	0.261552
321736	0.261643
323594	0.261733
325462	0.261823
327341	0.261913
329230	0.262003
331131	0.262093
333043	0.262183
334965	0.262274
336899	0.262364
338844	0.262454
340800	0.262544
342768	0.262633
344747	0.262723
346737	0.262813
348739	0.262903
350752	0.262993
352777	0.263083
354813	0.263172
356862	0.263262
358922	0.263352
360994	0.263442
363078	0.263531
365174	0.263621
367282	0.26371
369403	0.2638
371535	0.263889
373680	0.263979
375837	0.264068
378007	0.264158
380189	0.264247
382384	0.264336
384592	0.264426
386812	0.264515
389045	0.264604
391291	0.264693
393550	0.264783
395822	0.264872
398107	0.264961
400405	0.26505
402717	0.265139
405042	0.265228
407380	0.265317
409732	0.265406
412098	0.265495
414477	0.265584
416869	0.265673
419276	0.265761
421697	0.26585
424131	0.265939
426580	0.266028
429042	0.266116
431519	0.266205
434010	0.266293
436516	0.266382
439036	0.26647
441570	0.266559
444120	0.266647
446684	0.266736
449262	0.266824
451856	0.266912
454465	0.267001
457088	0.267089
459727	0.267177
462381	0.267265
465050	0.267354
467735	0.267442
470435	0.26753
473151	0.267618
475883	0.267706
478630	0.267794
481393	0.267882
484172	0.26797
486968	0.268057
489779	0.268145
492606	0.268233
495450	0.268321
498310	0.268408
501187	0.268496
504081	0.268584
506991	0.268671
509918	0.268759
512861	0.268846
515822	0.268934
518800	0.269021
521795	0.269108
524807	0.269196
527837	0.269283
530884	0.26937
533949	0.269458
537032	0.269545
540132	0.269632
543250	0.269719
546387	0.269806
549541	0.269893
552713	0.26998
555904	0.270067
559114	0.270154
562341	0.270241
565588	0.270327
568853	0.270414
572137	0.270501
575440	0.270587
578762	0.270674
582103	0.270761
585464	0.270847
588844	0.270934
592243	0.27102
595662	0.271107
599101	0.271193
602560	0.271279
606038	0.271365
609537	0.271452
613056	0.271538
616595	0.271624
620155	0.27171
623735	0.271796
627336	0.271882
630957	0.271968
634600	0.272054
638263	0.27214
641948	0.272226
645654	0.272312
649382	0.272397
653131	0.272483
656901	0.272569
660693	0.272654
664508	0.27274
668344	0.272825
672202	0.272911
676083	0.272996
679986	0.273082
683912	0.273167
687860	0.273252
691831	0.273338
695825	0.273423
699842	0.273508
703882	0.273593
707946	0.273678
712033	0.273763
716143	0.273848
720278	0.273933
724436	0.274018
728618	0.274103
732825	0.274187
737055	0.274272
741310	0.274357
745590	0.274441
749894	0.274526
754223	0.274611
758578	0.274695
762957	0.27478
767361	0.274864
771792	0.274948
776247	0.275033
780728	0.275117
785236	0.275201
789769	0.275285
794328	0.275369
798914	0.275453
803526	0.275537
808165	0.275621
812831	0.275705
817523	0.275789
822243	0.275873
826990	0.275956
831764	0.27604
836566	0.276124
841395	0.276207
846253	0.276291
851138	0.276374
856052	0.276458
860994	0.276541
865964	0.276625
870964	0.276708
875992	0.276791
881049	0.276874
886135	0.276957
891251	0.277041
896396	0.277124
901571	0.277207
906776	0.277289
912011	0.277372
917276	0.277455
922571	0.277538
927897	0.277621
933254	0.277703
938642	0.277786
944061	0.277869
949511	0.277951
954993	0.278034
960506	0.278116
966051	0.278198
971628	0.278281
977237	0.278363
982879	0.278445
988553	0.278527
994260	0.278609
1e+06	0.278691
1.00577e+06	0.278773
1.01158e+06	0.278855
1.01742e+06	0.278937
1.02329e+06	0.279019
1.0292e+06	0.279101
1.03514e+06	0.279182
1.04112e+06	0.279264
1.04713e+06	0.279346
1.05317e+06	0.279427
1.05925e+06	0.279509
1.06537e+06	0.27959
1.07152e+06	0.279671
1.07771e+06	0.279753
1.08393e+06	0.279834
1.09018e+06	0.279915
1.09648e+06	0.279996
1.10281e+06	0.280078
1.10917e+06	0.280159
1.11558e+06	0.28024
1.12202e+06	0.280321
1.1285e+06	0.280401
1.13501e+06	0.280482
1.14156e+06	0.280563
1.14815e+06	0.280644
1.15478e+06	0.280724
1.16145e+06	0.280805
1.16815e+06	0.280886
1.1749e+06	0.280966
1.18168e+06	0.281047
1.1885e+06	0.281127
1.19536e+06	0.281207
1.20226e+06	0.281288
1.20921e+06	0.281368
1.21619e+06	0.281448
1.22321e+06	0.281528
1.23027e+06	0.281608
1.23737e+06	0.281688
1.24451e+06	0.281768
1.2517e+06	0.281848
1.25893e+06	0.281928
1.26619e+06	0.282007
1.2735e+06	0.282087
1.28086e+06	0.282167
1.28825e+06	0.282246
1.29569e+06	0.282326
1.30317e+06	0.282405
1.31069e+06	0.282485
1.31826e+06	0.282564
1.32587e+06	0.282643
1.33352e+06	0.282723
1.34122e+06	0.282802
1.34896e+06	0.282881
1.35675e+06	0.28296
1.36458e+06	0.283039
1.37246e+06	0.283118
1.38038e+06	0.283197
1.38835e+06	0.283276
1.39637e+06	0.283354
1.40443e+06	0.283433
1.41254e+06	0.283512
1.42069e+06	0.28359
1.42889e+06	0.283669
1.43714e+06	0.283747
1.44544e+06	0.283826
1.45378e+06	0.283904
1.46218e+06	0.283983
1.47062e+06	0.284061
1.47911e+06	0.284139
1.48765e+06	0.284217
1.49624e+06	0.284295
1.50487e+06	0.284373
1.51356e+06	0.284451
1.5223e+06	0.284529
1.53109e+06	0.284607
1.53993e+06	0.284685
1.54882e+06	0.284762
1.55776e+06	0.28484
1.56675e+06	0.284917
1.5758e+06	0.284995
1.58489e+06	0.285072
1.59404e+06	0.28515
1.60325e+06	0.285227
1.6125e+06	0.285304
1.62181e+06	0.285382
1.63117e+06	0.285459
1.64059e+06	0.285536
1.65006e+06	0.285613
1.65959e+06	0.28569
1.66917e+06	0.285767
1.6788e+06	0.285844
1.6885e+06	0.285921
1.69824e+06	0.285997
1.70805e+06	0.286074
1.71791e+06	0.286151
1.72783e+06	0.286227
1.7378e+06	0.286304
1.74783e+06	0.28638
1.75792e+06	0.286456
1.76807e+06	0.286533
1.77828e+06	0.286609
1.78855e+06	0.286685
1.79887e+06	0.286761
1.80926e+06	0.286837
1.8197e+06	0.286913
1.83021e+06	0.286989
1.84077e+06	0.287065
1.8514e+06	0.287141
1.86209e+06	0.287217
1.87284e+06	0.287292
1.88365e+06	0.287368
1.89452e+06	0.287444
1.90546e+06	0.287519
1.91646e+06	0.287595
1.92752e+06	0.28767
1.93865e+06	0.287745
1.94984e+06	0.28782
1.9611e+06	0.287896
1.97242e+06	0.287971
1.98381e+06	0.288046
1.99526e+06	0.288121
2.00678e+06	0.288196
2.01837e+06	0.288271
2.03002e+06	0.288346
2.04174e+06	0.28842
2.05353e+06	0.288495
2.06538e+06	0.28857
2.0773e+06	0.288644
2.0893e+06	0.288719
2.10136e+06	0.288793
2.11349e+06	0.288868
2.12569e+06	0.288942
2.13796e+06	0.289016
2.1503e+06	0.28909
2.16272e+06	0.289164
2.1752e+06	0.289239
2.18776e+06	0.289313
2.20039e+06	0.289386
2.21309e+06	0.28946
2.22587e+06	0.289534
2.23872e+06	0.289608
2.25165e+06	0.289682
2.26464e+06	0.289755
2.27772e+06	0.289829
2.29087e+06	0.289902
2.30409e+06	0.289976
2.31739e+06	0.290049
2.33077e+06	0.290122
2.34423e+06	0.290196
2.35776e+06	0.290269
2.37137e+06	0.290342
2.38506e+06	0.290415
2.39883e+06	0.290488
2.41268e+06	0.290561
2.42661e+06	0.290634
2.44062e+06	0.290707
2.45471e+06	0.290779
2.46888e+06	0.290852
2.48313e+06	0.290925
2.49747e+06	0.290997
2.51189e+06	0.29107
2.52639e+06	0.291142
2.54097e+06	0.291215
2.55564e+06	0.291287
2.5704e+06	0.291359
2.58523e+06	0.291431
2.60016e+06	0.291503
2.61517e+06	0.291575
2.63027e+06	0.291647
2.64545e+06	0.291719
2.66073e+06	0.291791
2.67609e+06	0.291863
2.69153e+06	0.291935
2.70707e+06	0.292006
2.7227e+06	0.292078
2.73842e+06	0.29215
2.75423e+06	0.292221
2.77013e+06	0.292292
2.78612e+06	0.292364
2.80221e+06	0.292435
2.81838e+06	0.292506
2.83465e+06	0.292578
2.85102e+06	0.292649
2.86748e+06	0.29272
2.88403e+06	0.292791
2.90068e+06	0.292862
2.91743e+06	0.292932
2.93427e+06	0.293003
2.95121e+06	0.293074
2.96825e+06	0.293145
2.98538e+06	0.293215
3.00262e+06	0.293286
3.01995e+06	0.293356
3.03739e+06	0.293427
3.05492e+06	0.293497
3.07256e+06	0.293567
3.0903e+06	0.293637
3.10814e+06	0.293708
3.12608e+06	0.293778
3.14413e+06	0.293848
3.16228e+06	0.293918
3.18053e+06	0.293988
3.1989e+06	0.294057
3.21736e+06	0.294127
3.23594e+06	0.294197
3.25462e+06	0.294266
3.27341e+06	0.294336
3.2923e+06	0.294406
3.31131e+06	0.294475
3.33043e+06	0.294544
3.34965e+06	0.294614
3.36899e+06	0.294683
3.38844e+06	0.294752
3.408e+06	0.294821
3.42768e+06	0.294891
3.44747e+06	0.29496
3.46737e+06	0.295028
3.48739e+06	0.295097
3.50752e+06	0.295166
3.52777e+06	0.295235
3.54813e+06	0.295304
3.56862e+06	0.295372
3.58922e+06	0.295441
3.60994e+06	0.295509
3.63078e+06	0.295578
3.65174e+06	0.295646
3.67282e+06	0.295715
3.69403e+06	0.295783
3.71535e+06	0.295851
3.7368e+06	0.295919
3.75837e+06	0.295987
3.78007e+06	0.296055
3.80189e+06	0.296123
3.82384e+06	0.296191
3.84592e+06	0.296259
3.86812e+06	0.296327
3.89045e+06	0.296395
3.91291e+06	0.296462
3.9355e+06	0.29653
3.95822e+06	0.296597
3.98107e+06	0.296652
4.00405e+06	0.29664
4.02717e+06	0.296629
4.05042e+06	0.296617
4.0738e+06	0.296606
4.09732e+06	0.296594
4.12098e+06	0.296583
4.14477e+06	0.296572
4.16869e+06	0.296561
4.19276e+06	0.29655
4.21697e+06	0.29654
4.24131e+06	0.296529
4.2658e+06	0.296519
4.29042e+06	0.296508
4.31519e+06	0.296498
4.3401e+06	0.296488
4.36516e+06	0.296478
4.39036e+06	0.296468
4.4157e+06	0.296458
4.4412e+06	0.296449
4.46684e+06	0.296439
4.49262e+06	0.29643
4.51856e+06	0.29642
4.54465e+06	0.296411
4.57088e+06	0.296402
4.59727e+06	0.296393
4.62381e+06	0.296384
4.6505e+06	0.296375
4.67735e+06	0.296367
4.70435e+06	0.296358
4.73151e+06	0.29635
4.75883e+06	0.296341
4.7863e+06	0.296333
4.81393e+06	0.296325
4.84172e+06	0.296317
4.86968e+06	0.296309
4.89779e+06	0.296301
4.92606e+06	0.296293
4.9545e+06	0.296285
4.9831e+06	0.296277
5.01187e+06	0.29627
5.04081e+06	0.296262
5.06991e+06	0.296255
5.09918e+06	0.296248
5.12861e+06	0.29624
5.15822e+06	0.296233
5.188e+06	0.296226
5.21795e+06	0.296219
5.24807e+06	0.296212
5.27837e+06	0.296206
5.30884e+06	0.296199
5.33949e+06	0.296192
5.37032e+06	0.296186
5.40132e+06	0.296179
5.4325e+06	0.296173
5.46387e+06	0.296166
5.49541e+06	0.29616
5.52713e+06	0.296154
5.55904e+06	0.296148
5.59114e+06	0.296141
5.62341e+06	0.296135
5.65588e+06	0.29613
5.68853e+06	0.296124
5.72137e+06	0.296118
5.7544e+06	0.296112
5.78762e+06	0.296106
5.82103e+06	0.296101
5.85464e+06	0.296095
5.88844e+06	0.29609
5.92243e+06	0.296084
5.95662e+06	0.296079
5.99101e+06	0.296074
6.0256e+06	0.296068
6.06038e+06	0.296063
6.09537e+06	0.296058
6.13056e+06	0.296053
6.16595e+06	0.296048
6.20155e+06	0.296043
6.23735e+06	0.296038
6.27336e+06	0.296033
6.30957e+06	0.296029
6.346e+06	0.296024
6.38263e+06	0.296019
6.41948e+06	0.296015
6.45654e+06	0.29601
6.49382e+06	0.296006
6.53131e+06	0.296001
6.56901e+06	0.295997
6.60693e+06	0.295992
6.64508e+06	0.295988
6.68344e+06	0.295984
6.72202e+06	0.29598
6.76083e+06	0.295975
6.79986e+06	0.295971
6.83912e+06	0.295967
6.8786e+06	0.295963
6.91831e+06	0.295959
6.95825e+06	0.295955
6.99842e+06	0.295951
7.03882e+06	0.295948
7.07946e+06	0.295944
7.12033e+06	0.29594
7.16143e+06	0.295936
7.20278e+06	0.295933
7.24436e+06	0.295929
7.28618e+06	0.295925
7.32825e+06	0.295922
7.37055e+06	0.295918
7.4131e+06	0.295915
7.4559e+06	0.295912
7.49894e+06	0.295908
7.54223e+06	0.295905
7.58578e+06	0.295902
7.62957e+06	0.295898
7.67361e+06	0.295895
7.71792e+06	0.295892
7.76247e+06	0.295889
7.80728e+06	0.295886
7.85236e+06	0.295882
7.89769e+06	0.295879
7.94328e+06	0.295876
7.98914e+06	0.295873
8.03526e+06	0.29587
8.08165e+06	0.295868
8.12831e+06	0.295865
8.17523e+06	0.295862
8.22243e+06	0.295859
8.2699e+06	0.295856
8.31764e+06	0.295854
8.36566e+06	0.295851
8.41395e+06	0.295848
8.46253e+06	0.295845
8.51138e+06	0.295843
8.56052e+06	0.29584
8.60994e+06	0.295838
8.65964e+06	0.295835
8.70964e+06	0.295833
8.75992e+06	0.29583
8.81049e+06	0.295828
8.86135e+06	0.295825
8.91251e+06	0.295823
8.96396e+06	0.295821
9.01571e+06	0.295818
9.06776e+06	0.295816
9.12011e+06	0.295814
9.17276e+06	0.295811
9.22571e+06	0.295809
9.27897e+06	0.295807
9.33254e+06	0.295805
9.38642e+06	0.295803
9.44061e+06	0.2958
9.49511e+06	0.295798
9.54993e+06	0.295796
9.60506e+06	0.295794
9.66051e+06	0.295792
9.71628e+06	0.29579
9.77237e+06	0.295788
9.82879e+06	0.295786
9.88553e+06	0.295784
9.9426e+06	0.295782
1e+07	0.29578
