Stopping power dEdx from Ionisation for proton Z = 1 in Water, process name: hIoni
E [MeV]	dEdx [MeV/mm]
0.001	17.1844
0.00100577	17.2339
0.00101158	17.2836
0.00101742	17.3334
0.00102329	17.3834
0.0010292	17.4335
0.00103514	17.4837
0.00104112	17.5341
0.00104713	17.5847
0.00105317	17.6353
0.00105925	17.6862
0.00106537	17.7372
0.00107152	17.7883
0.00107771	17.8396
0.00108393	17.891
0.00109018	17.9425
0.00109648	17.9943
0.00110281	18.0461
0.00110917	18.0981
0.00111558	18.1503
0.00112202	18.2026
0.0011285	18.2551
0.00113501	18.3077
0.00114156	18.3605
0.00114815	18.4134
0.00115478	18.4665
0.00116145	18.5197
0.00116815	18.5731
0.0011749	18.6266
0.00118168	18.6803
0.0011885	18.7342
0.00119536	18.7882
0.00120226	18.8423
0.00120921	18.8966
0.00121619	18.9511
0.00122321	19.0057
0.00123027	19.0605
0.00123737	19.1154
0.00124451	19.1705
0.0012517	19.2258
0.00125893	19.2812
0.00126619	19.3368
0.0012735	19.3925
0.00128086	19.4484
0.00128825	19.5045
0.00129569	19.5607
0.00130317	19.6171
0.00131069	19.6736
0.00131826	19.7303
0.00132587	19.7872
0.00133352	19.8442
0.00134122	19.9014
0.00134896	19.9588
0.00135675	20.0163
0.00136458	20.074
0.00137246	20.1319
0.00138038	20.1899
0.00138835	20.2481
0.00139637	20.3065
0.00140443	20.365
0.00141254	20.4237
0.00142069	20.4826
0.00142889	20.5416
0.00143714	20.6008
0.00144544	20.6602
0.00145378	20.7197
0.00146218	20.7795
0.00147062	20.8393
0.00147911	20.8994
0.00148765	20.9597
0.00149624	21.0201
0.00150487	21.0807
0.00151356	21.1414
0.0015223	21.2024
0.00153109	21.2635
0.00153993	21.3248
0.00154882	21.3862
0.00155776	21.4479
0.00156675	21.5097
0.0015758	21.5717
0.00158489	21.6339
0.00159404	21.6962
0.00160325	21.7588
0.0016125	21.8215
0.00162181	21.8844
0.00163117	21.9475
0.00164059	22.0107
0.00165006	22.0742
0.00165959	22.1378
0.00166917	22.2016
0.0016788	22.2656
0.0016885	22.3298
0.00169824	22.3941
0.00170805	22.4587
0.00171791	22.5234
0.00172783	22.5883
0.0017378	22.6534
0.00174783	22.7187
0.00175792	22.7842
0.00176807	22.8499
0.00177828	22.9157
0.00178855	22.9818
0.00179887	23.048
0.00180926	23.1145
0.0018197	23.1811
0.00183021	23.2479
0.00184077	23.3149
0.0018514	23.3821
0.00186209	23.4495
0.00187284	23.5171
0.00188365	23.5849
0.00189452	23.6529
0.00190546	23.7211
0.00191646	23.7894
0.00192752	23.858
0.00193865	23.9268
0.00194984	23.9957
0.0019611	24.0649
0.00197242	24.1343
0.00198381	24.2038
0.00199526	24.2736
0.00200678	24.3436
0.00201837	24.4137
0.00203002	24.4841
0.00204174	24.5547
0.00205353	24.6254
0.00206538	24.6964
0.0020773	24.7676
0.0020893	24.839
0.00210136	24.9106
0.00211349	24.9824
0.00212569	25.0544
0.00213796	25.1266
0.0021503	25.199
0.00216272	25.2717
0.0021752	25.3445
0.00218776	25.4176
0.00220039	25.4908
0.00221309	25.5643
0.00222587	25.638
0.00223872	25.7119
0.00225165	25.786
0.00226464	25.8603
0.00227772	25.9349
0.00229087	26.0096
0.00230409	26.0846
0.00231739	26.1598
0.00233077	26.2352
0.00234423	26.3108
0.00235776	26.3866
0.00237137	26.4627
0.00238506	26.539
0.00239883	26.6155
0.00241268	26.6922
0.00242661	26.7691
0.00244062	26.8463
0.00245471	26.9237
0.00246888	27.0013
0.00248313	27.0791
0.00249747	27.1571
0.00251189	27.2354
0.00252639	27.3139
0.00254097	27.3927
0.00255564	27.4716
0.0025704	27.5508
0.00258523	27.6302
0.00260016	27.7098
0.00261517	27.7897
0.00263027	27.8698
0.00264545	27.9501
0.00266073	28.0307
0.00267609	28.1115
0.00269153	28.1925
0.00270707	28.2738
0.0027227	28.3553
0.00273842	28.437
0.00275423	28.519
0.00277013	28.6012
0.00278612	28.6836
0.00280221	28.7663
0.00281838	28.8492
0.00283465	28.9324
0.00285102	29.0158
0.00286748	29.0994
0.00288403	29.1833
0.00290068	29.2674
0.00291743	29.3518
0.00293427	29.4364
0.00295121	29.5212
0.00296825	29.6063
0.00298538	29.6916
0.00300262	29.7772
0.00301995	29.863
0.00303739	29.9491
0.00305492	30.0354
0.00307256	30.122
0.0030903	30.2088
0.00310814	30.2959
0.00312608	30.3832
0.00314413	30.4708
0.00316228	30.5586
0.00318053	30.6467
0.0031989	30.7351
0.00321736	30.8237
0.00323594	30.9125
0.00325462	31.0016
0.00327341	31.091
0.0032923	31.1806
0.00331131	31.2704
0.00333043	31.3606
0.00334965	31.451
0.00336899	31.5416
0.00338844	31.6325
0.003408	31.7237
0.00342768	31.8152
0.00344747	31.9069
0.00346737	31.9988
0.00348739	32.0911
0.00350752	32.1836
0.00352777	32.2763
0.00354813	32.3694
0.00356862	32.4627
0.00358922	32.5562
0.00360994	32.6501
0.00363078	32.7442
0.00365174	32.8386
0.00367282	32.9332
0.00369403	33.0281
0.00371535	33.1233
0.0037368	33.2188
0.00375837	33.3146
0.00378007	33.4106
0.00380189	33.5069
0.00382384	33.6035
0.00384592	33.7003
0.00386812	33.7975
0.00389045	33.8949
0.00391291	33.9926
0.0039355	34.0906
0.00395822	34.1888
0.00398107	34.2874
0.00400405	34.3862
0.00402717	34.4853
0.00405042	34.5847
0.0040738	34.6844
0.00409732	34.7844
0.00412098	34.8846
0.00414477	34.9852
0.00416869	35.086
0.00419276	35.1871
0.00421697	35.2886
0.00424131	35.3903
0.0042658	35.4923
0.00429042	35.5946
0.00431519	35.6972
0.0043401	35.8001
0.00436516	35.9033
0.00439036	36.0068
0.0044157	36.1105
0.0044412	36.2146
0.00446684	36.319
0.00449262	36.4237
0.00451856	36.5287
0.00454465	36.634
0.00457088	36.7396
0.00459727	36.8455
0.00462381	36.9517
0.0046505	37.0582
0.00467735	37.165
0.00470435	37.2721
0.00473151	37.3796
0.00475883	37.4873
0.0047863	37.5953
0.00481393	37.7037
0.00484172	37.8124
0.00486968	37.9214
0.00489779	38.0307
0.00492606	38.1403
0.0049545	38.2502
0.0049831	38.3605
0.00501187	38.4711
0.00504081	38.5819
0.00506991	38.6931
0.00509918	38.8047
0.00512861	38.9165
0.00515822	39.0287
0.005188	39.1412
0.00521795	39.254
0.00524807	39.3672
0.00527837	39.4806
0.00530884	39.5944
0.00533949	39.7086
0.00537032	39.823
0.00540132	39.9378
0.0054325	40.0529
0.00546387	40.1684
0.00549541	40.2841
0.00552713	40.4003
0.00555904	40.5167
0.00559114	40.6335
0.00562341	40.7506
0.00565588	40.8681
0.00568853	40.9859
0.00572137	41.104
0.0057544	41.2225
0.00578762	41.3413
0.00582103	41.4605
0.00585464	41.58
0.00588844	41.6998
0.00592243	41.82
0.00595662	41.9405
0.00599101	42.0614
0.0060256	42.1827
0.00606038	42.3043
0.00609537	42.4262
0.00613056	42.5485
0.00616595	42.6711
0.00620155	42.7941
0.00623735	42.9175
0.00627336	43.0412
0.00630957	43.1652
0.006346	43.2897
0.00638263	43.4144
0.00641948	43.5396
0.00645654	43.6651
0.00649382	43.7909
0.00653131	43.9171
0.00656901	44.0437
0.00660693	44.1707
0.00664508	44.298
0.00668344	44.4257
0.00672202	44.5537
0.00676083	44.6822
0.00679986	44.8109
0.00683912	44.9401
0.0068786	45.0696
0.00691831	45.1995
0.00695825	45.3298
0.00699842	45.4605
0.00703882	45.5915
0.00707946	45.7229
0.00712033	45.8547
0.00716143	45.9869
0.00720278	46.1194
0.00724436	46.2524
0.00728618	46.3857
0.00732825	46.5194
0.00737055	46.6535
0.0074131	46.788
0.0074559	46.9228
0.00749894	47.0581
0.00754223	47.1937
0.00758578	47.3297
0.00762957	47.4662
0.00767361	47.603
0.00771792	47.7402
0.00776247	47.8778
0.00780728	48.0158
0.00785236	48.1542
0.00789769	48.293
0.00794328	48.4322
0.00798914	48.5718
0.00803526	48.7118
0.00808165	48.8522
0.00812831	48.993
0.00817523	49.1342
0.00822243	49.2758
0.0082699	49.4179
0.00831764	49.5603
0.00836566	49.7032
0.00841395	49.8464
0.00846253	49.9901
0.00851138	50.1342
0.00856052	50.2787
0.00860994	50.4236
0.00865964	50.569
0.00870964	50.7147
0.00875992	50.8609
0.00881049	51.0075
0.00886135	51.1545
0.00891251	51.302
0.00896396	51.4498
0.00901571	51.5981
0.00906776	51.7469
0.00912011	51.896
0.00917276	52.0456
0.00922571	52.1956
0.00927897	52.3461
0.00933254	52.497
0.00938642	52.6483
0.00944061	52.8
0.00949511	52.9522
0.00954993	53.1048
0.00960506	53.2579
0.00966051	53.4114
0.00971628	53.5654
0.00977237	53.7198
0.00982879	53.8746
0.00988553	54.0299
0.0099426	54.1856
0.01	54.3418
0.0100577	54.4984
0.0101158	54.6381
0.0101742	54.7719
0.0102329	54.906
0.010292	55.0403
0.0103514	55.1749
0.0104112	55.3098
0.0104713	55.4449
0.0105317	55.5802
0.0105925	55.7158
0.0106537	55.8517
0.0107152	55.9878
0.0107771	56.1242
0.0108393	56.2608
0.0109018	56.3977
0.0109648	56.5348
0.0110281	56.6721
0.0110917	56.8097
0.0111558	56.9476
0.0112202	57.0857
0.011285	57.2241
0.0113501	57.3627
0.0114156	57.5015
0.0114815	57.6406
0.0115478	57.7799
0.0116145	57.9195
0.0116815	58.0594
0.011749	58.1994
0.0118168	58.3397
0.011885	58.4803
0.0119536	58.6211
0.0120226	58.7621
0.0120921	58.9034
0.0121619	59.0449
0.0122321	59.1866
0.0123027	59.3286
0.0123737	59.4708
0.0124451	59.6133
0.012517	59.7559
0.0125893	59.8988
0.0126619	60.042
0.012735	60.1854
0.0128086	60.329
0.0128825	60.4728
0.0129569	60.6169
0.0130317	60.7612
0.0131069	60.9057
0.0131826	61.0504
0.0132587	61.1954
0.0133352	61.3406
0.0134122	61.486
0.0134896	61.6316
0.0135675	61.7774
0.0136458	61.9235
0.0137246	62.0698
0.0138038	62.2163
0.0138835	62.363
0.0139637	62.5099
0.0140443	62.657
0.0141254	62.8044
0.0142069	62.9519
0.0142889	63.0997
0.0143714	63.2476
0.0144544	63.3958
0.0145378	63.5442
0.0146218	63.6928
0.0147062	63.8415
0.0147911	63.9905
0.0148765	64.1397
0.0149624	64.289
0.0150487	64.4386
0.0151356	64.5883
0.015223	64.7383
0.0153109	64.8884
0.0153993	65.0387
0.0154882	65.1892
0.0155776	65.3399
0.0156675	65.4908
0.015758	65.6418
0.0158489	65.793
0.0159404	65.9444
0.0160325	66.096
0.016125	66.2477
0.0162181	66.3997
0.0163117	66.5517
0.0164059	66.704
0.0165006	66.8564
0.0165959	67.009
0.0166917	67.1617
0.016788	67.3146
0.016885	67.4677
0.0169824	67.6209
0.0170805	67.7742
0.0171791	67.9278
0.0172783	68.0814
0.017378	68.2352
0.0174783	68.3892
0.0175792	68.5432
0.0176807	68.6975
0.0177828	68.8518
0.0178855	69.0063
0.0179887	69.1609
0.0180926	69.3157
0.018197	69.4705
0.0183021	69.6255
0.0184077	69.7807
0.018514	69.9359
0.0186209	70.0912
0.0187284	70.2467
0.0188365	70.4023
0.0189452	70.5579
0.0190546	70.7137
0.0191646	70.8696
0.0192752	71.0256
0.0193865	71.1816
0.0194984	71.3378
0.019611	71.494
0.0197242	71.6504
0.0198381	71.8068
0.0199526	71.9633
0.0200678	72.1199
0.0201837	72.2765
0.0203002	72.4332
0.0204174	72.59
0.0205353	72.7469
0.0206538	72.9038
0.020773	73.0607
0.020893	73.2177
0.0210136	73.3748
0.0211349	73.5319
0.0212569	73.689
0.0213796	73.8462
0.021503	74.0035
0.0216272	74.1607
0.021752	74.318
0.0218776	74.4753
0.0220039	74.6326
0.0221309	74.79
0.0222587	74.9473
0.0223872	75.1047
0.0225165	75.262
0.0226464	75.4194
0.0227772	75.5767
0.0229087	75.7341
0.0230409	75.8914
0.0231739	76.0487
0.0233077	76.206
0.0234423	76.3633
0.0235776	76.5205
0.0237137	76.6777
0.0238506	76.8349
0.0239883	76.992
0.0241268	77.1491
0.0242661	77.3061
0.0244062	77.4631
0.0245471	77.62
0.0246888	77.7768
0.0248313	77.9336
0.0249747	78.0903
0.0251189	78.2469
0.0252639	78.4034
0.0254097	78.5598
0.0255564	78.7162
0.025704	78.8724
0.0258523	79.0285
0.0260016	79.1845
0.0261517	79.3404
0.0263027	79.4962
0.0264545	79.6518
0.0266073	79.8074
0.0267609	79.9627
0.0269153	80.118
0.0270707	80.273
0.027227	80.428
0.0273842	80.5827
0.0275423	80.7373
0.0277013	80.8917
0.0278612	81.046
0.0280221	81.2001
0.0281838	81.3539
0.0283465	81.5076
0.0285102	81.6611
0.0286748	81.8143
0.0288403	81.9674
0.0290068	82.1202
0.0291743	82.2728
0.0293427	82.4252
0.0295121	82.5773
0.0296825	82.7292
0.0298538	82.8809
0.0300262	83.0322
0.0301995	83.1834
0.0303739	83.3342
0.0305492	83.4848
0.0307256	83.635
0.030903	83.785
0.0310814	83.9347
0.0312608	84.0841
0.0314413	84.2332
0.0316228	84.3819
0.0318053	84.5304
0.031989	84.6784
0.0321736	84.8262
0.0323594	84.9736
0.0325462	85.1207
0.0327341	85.2674
0.032923	85.4137
0.0331131	85.5596
0.0333043	85.7052
0.0334965	85.8503
0.0336899	85.9951
0.0338844	86.1395
0.03408	86.2834
0.0342768	86.427
0.0344747	86.5701
0.0346737	86.7127
0.0348739	86.8549
0.0350752	86.9967
0.0352777	87.138
0.0354813	87.2788
0.0356862	87.4192
0.0358922	87.5591
0.0360994	87.6985
0.0363078	87.8373
0.0365174	87.9757
0.0367282	88.1135
0.0369403	88.2509
0.0371535	88.3877
0.037368	88.5239
0.0375837	88.6596
0.0378007	88.7947
0.0380189	88.9293
0.0382384	89.0633
0.0384592	89.1967
0.0386812	89.3295
0.0389045	89.4617
0.0391291	89.5933
0.039355	89.7243
0.0395822	89.8547
0.0398107	89.9844
0.0400405	90.1134
0.0402717	90.2419
0.0405042	90.3696
0.040738	90.4967
0.0409732	90.6231
0.0412098	90.7488
0.0414477	90.8737
0.0416869	90.998
0.0419276	91.1216
0.0421697	91.2444
0.0424131	91.3665
0.042658	91.4879
0.0429042	91.6085
0.0431519	91.7283
0.043401	91.8473
0.0436516	91.9656
0.0439036	92.0831
0.044157	92.1998
0.044412	92.3156
0.0446684	92.4306
0.0449262	92.5448
0.0451856	92.6582
0.0454465	92.7707
0.0457088	92.8823
0.0459727	92.9931
0.0462381	93.103
0.046505	93.212
0.0467735	93.3201
0.0470435	93.4273
0.0473151	93.5336
0.0475883	93.6389
0.047863	93.7433
0.0481393	93.8468
0.0484172	93.9493
0.0486968	94.0508
0.0489779	94.1513
0.0492606	94.2509
0.049545	94.3495
0.049831	94.447
0.0501187	94.5436
0.0504081	94.6391
0.0506991	94.7335
0.0509918	94.827
0.0512861	94.9193
0.0515822	95.0106
0.05188	95.1009
0.0521795	95.19
0.0524807	95.278
0.0527837	95.365
0.0530884	95.4508
0.0533949	95.5355
0.0537032	95.619
0.0540132	95.7014
0.054325	95.7827
0.0546387	95.8628
0.0549541	95.9417
0.0552713	96.0194
0.0555904	96.096
0.0559114	96.1713
0.0562341	96.2454
0.0565588	96.3183
0.0568853	96.39
0.0572137	96.4604
0.057544	96.5296
0.0578762	96.5975
0.0582103	96.6641
0.0585464	96.7295
0.0588844	96.7935
0.0592243	96.8563
0.0595662	96.9178
0.0599101	96.9779
0.060256	97.0367
0.0606038	97.0942
0.0609537	97.1503
0.0613056	97.2051
0.0616595	97.2585
0.0620155	97.3106
0.0623735	97.3612
0.0627336	97.4105
0.0630957	97.4584
0.06346	97.5049
0.0638263	97.5499
0.0641948	97.5936
0.0645654	97.6358
0.0649382	97.6765
0.0653131	97.7158
0.0656901	97.7537
0.0660693	97.7901
0.0664508	97.825
0.0668344	97.8584
0.0672202	97.8903
0.0676083	97.9208
0.0679986	97.9497
0.0683912	97.9771
0.068786	98.003
0.0691831	98.0274
0.0695825	98.0502
0.0699842	98.0715
0.0703882	98.0912
0.0707946	98.1094
0.0712033	98.126
0.0716143	98.1411
0.0720278	98.1545
0.0724436	98.1664
0.0728618	98.1767
0.0732825	98.1854
0.0737055	98.1924
0.074131	98.1979
0.074559	98.2018
0.0749894	98.204
0.0754223	98.2046
0.0758578	98.2035
0.0762957	98.2008
0.0767361	98.1965
0.0771792	98.1905
0.0776247	98.1829
0.0780728	98.1736
0.0785236	98.1626
0.0789769	98.1499
0.0794328	98.1356
0.0798914	98.1196
0.0803526	98.1019
0.0808165	98.0825
0.0812831	98.0614
0.0817523	98.0386
0.0822243	98.0141
0.082699	97.9879
0.0831764	97.96
0.0836566	97.9304
0.0841395	97.8991
0.0846253	97.866
0.0851138	97.8312
0.0856052	97.7947
0.0860994	97.7564
0.0865964	97.7165
0.0870964	97.6748
0.0875992	97.6313
0.0881049	97.5861
0.0886135	97.5392
0.0891251	97.4905
0.0896396	97.4401
0.0901571	97.3879
0.0906776	97.334
0.0912011	97.2784
0.0917276	97.221
0.0922571	97.1618
0.0927897	97.1009
0.0933254	97.0382
0.0938642	96.9738
0.0944061	96.9077
0.0949511	96.8398
0.0954993	96.7701
0.0960506	96.6987
0.0966051	96.6256
0.0971628	96.5507
0.0977237	96.474
0.0982879	96.3956
0.0988553	96.3155
0.099426	96.2336
0.1	96.15
0.100577	96.0647
0.101158	95.9776
0.101742	95.8888
0.102329	95.7982
0.10292	95.706
0.103514	95.612
0.104112	95.5163
0.104713	95.4188
0.105317	95.3197
0.105925	95.2189
0.106537	95.1163
0.107152	95.0121
0.107771	94.9061
0.108393	94.7985
0.109018	94.6891
0.109648	94.5781
0.110281	94.4654
0.110917	94.3511
0.111558	94.2351
0.112202	94.1174
0.11285	93.9981
0.113501	93.8771
0.114156	93.7545
0.114815	93.6302
0.115478	93.5043
0.116145	93.3768
0.116815	93.2477
0.11749	93.117
0.118168	92.9847
0.11885	92.8508
0.119536	92.7153
0.120226	92.5783
0.120921	92.4396
0.121619	92.2995
0.122321	92.1577
0.123027	92.0145
0.123737	91.8697
0.124451	91.7234
0.12517	91.5756
0.125893	91.4262
0.126619	91.2754
0.12735	91.1231
0.128086	90.9694
0.128825	90.8141
0.129569	90.6575
0.130317	90.4993
0.131069	90.3398
0.131826	90.1788
0.132587	90.0165
0.133352	89.8527
0.134122	89.6876
0.134896	89.521
0.135675	89.3532
0.136458	89.1839
0.137246	89.0134
0.138038	88.8415
0.138835	88.6683
0.139637	88.4938
0.140443	88.318
0.141254	88.141
0.142069	87.9627
0.142889	87.7831
0.143714	87.6023
0.144544	87.4203
0.145378	87.2371
0.146218	87.0527
0.147062	86.8671
0.147911	86.6804
0.148765	86.4925
0.149624	86.3034
0.150487	86.1133
0.151356	85.922
0.15223	85.7297
0.153109	85.5362
0.153993	85.3417
0.154882	85.1462
0.155776	84.9496
0.156675	84.752
0.15758	84.5534
0.158489	84.3538
0.159404	84.1532
0.160325	83.9517
0.16125	83.7492
0.162181	83.5458
0.163117	83.3415
0.164059	83.1363
0.165006	82.9302
0.165959	82.7233
0.166917	82.5155
0.16788	82.3068
0.16885	82.0974
0.169824	81.8871
0.170805	81.6761
0.171791	81.4642
0.172783	81.2517
0.17378	81.0384
0.174783	80.8243
0.175792	80.6096
0.176807	80.3942
0.177828	80.1781
0.178855	79.9613
0.179887	79.7439
0.180926	79.5259
0.18197	79.3073
0.183021	79.088
0.184077	78.8682
0.18514	78.6479
0.186209	78.4269
0.187284	78.2055
0.188365	77.9835
0.189452	77.7611
0.190546	77.5382
0.191646	77.3148
0.192752	77.0909
0.193865	76.8666
0.194984	76.6419
0.19611	76.4168
0.197242	76.1913
0.198381	75.9655
0.199526	75.7393
0.200678	75.5127
0.201837	75.2858
0.203002	75.0587
0.204174	74.8312
0.205353	74.6034
0.206538	74.3754
0.20773	74.1472
0.20893	73.9187
0.210136	73.69
0.211349	73.461
0.212569	73.2319
0.213796	73.0027
0.21503	72.7732
0.216272	72.5437
0.21752	72.314
0.218776	72.0842
0.220039	71.8542
0.221309	71.6242
0.222587	71.3942
0.223872	71.1641
0.225165	70.9339
0.226464	70.7037
0.227772	70.4735
0.229087	70.2432
0.230409	70.013
0.231739	69.7829
0.233077	69.5527
0.234423	69.3226
0.235776	69.0926
0.237137	68.8626
0.238506	68.6328
0.239883	68.403
0.241268	68.1733
0.242661	67.9438
0.244062	67.7144
0.245471	67.4852
0.246888	67.2561
0.248313	67.0272
0.249747	66.7985
0.251189	66.5699
0.252639	66.3416
0.254097	66.1135
0.255564	65.8857
0.25704	65.658
0.258523	65.4307
0.260016	65.2035
0.261517	64.9767
0.263027	64.7501
0.264545	64.5239
0.266073	64.2979
0.267609	64.0722
0.269153	63.8469
0.270707	63.6219
0.27227	63.3972
0.273842	63.1729
0.275423	62.949
0.277013	62.7254
0.278612	62.5022
0.280221	62.2793
0.281838	62.0569
0.283465	61.8348
0.285102	61.6132
0.286748	61.392
0.288403	61.1712
0.290068	60.9509
0.291743	60.731
0.293427	60.5115
0.295121	60.2925
0.296825	60.0739
0.298538	59.8558
0.300262	59.6382
0.301995	59.4211
0.303739	59.2045
0.305492	58.9883
0.307256	58.7727
0.30903	58.5575
0.310814	58.3429
0.312608	58.1288
0.314413	57.9152
0.316228	57.7021
0.318053	57.4896
0.31989	57.2776
0.321736	57.0661
0.323594	56.8552
0.325462	56.6449
0.327341	56.4351
0.32923	56.2258
0.331131	56.0172
0.333043	55.8091
0.334965	55.6016
0.336899	55.3946
0.338844	55.1882
0.3408	54.9825
0.342768	54.7773
0.344747	54.5727
0.346737	54.3687
0.348739	54.1653
0.350752	53.9624
0.352777	53.7602
0.354813	53.5586
0.356862	53.3576
0.358922	53.1573
0.360994	52.9575
0.363078	52.7583
0.365174	52.5598
0.367282	52.3619
0.369403	52.1646
0.371535	51.9679
0.37368	51.7719
0.375837	51.5765
0.378007	51.3817
0.380189	51.1875
0.382384	50.994
0.384592	50.8011
0.386812	50.6088
0.389045	50.4172
0.391291	50.2262
0.39355	50.0358
0.395822	49.8461
0.398107	49.657
0.400405	49.4685
0.402717	49.2807
0.405042	49.0935
0.40738	48.907
0.409732	48.7211
0.412098	48.5358
0.414477	48.3512
0.416869	48.1672
0.419276	47.9838
0.421697	47.8011
0.424131	47.619
0.42658	47.4376
0.429042	47.2568
0.431519	47.0766
0.43401	46.8971
0.436516	46.7182
0.439036	46.54
0.44157	46.3623
0.44412	46.1853
0.446684	46.009
0.449262	45.8333
0.451856	45.6582
0.454465	45.4837
0.457088	45.3098
0.459727	45.1366
0.462381	44.964
0.46505	44.7921
0.467735	44.6207
0.470435	44.45
0.473151	44.2799
0.475883	44.1104
0.47863	43.9416
0.481393	43.7733
0.484172	43.6057
0.486968	43.4387
0.489779	43.2723
0.492606	43.1065
0.49545	42.9413
0.49831	42.7767
0.501187	42.6127
0.504081	42.4494
0.506991	42.2866
0.509918	42.1244
0.512861	41.9629
0.515822	41.8019
0.5188	41.6415
0.521795	41.4817
0.524807	41.3225
0.527837	41.1639
0.530884	41.0059
0.533949	40.8484
0.537032	40.6916
0.540132	40.5353
0.54325	40.3796
0.546387	40.2245
0.549541	40.0699
0.552713	39.9159
0.555904	39.7625
0.559114	39.6097
0.562341	39.4574
0.565588	39.3057
0.568853	39.1545
0.572137	39.0039
0.57544	38.8539
0.578762	38.7044
0.582103	38.5555
0.585464	38.4071
0.588844	38.2593
0.592243	38.112
0.595662	37.9652
0.599101	37.819
0.60256	37.6734
0.606038	37.5283
0.609537	37.3837
0.613056	37.2396
0.616595	37.0961
0.620155	36.9531
0.623735	36.8106
0.627336	36.6687
0.630957	36.5272
0.6346	36.3863
0.638263	36.2459
0.641948	36.106
0.645654	35.9667
0.649382	35.8278
0.653131	35.6895
0.656901	35.5516
0.660693	35.4143
0.664508	35.2775
0.668344	35.1411
0.672202	35.0053
0.676083	34.8699
0.679986	34.7351
0.683912	34.6007
0.68786	34.4669
0.691831	34.3335
0.695825	34.2006
0.699842	34.0681
0.703882	33.9362
0.707946	33.8047
0.712033	33.6738
0.716143	33.5433
0.720278	33.4132
0.724436	33.2836
0.728618	33.1545
0.732825	33.0259
0.737055	32.8977
0.74131	32.77
0.74559	32.6428
0.749894	32.516
0.754223	32.3896
0.758578	32.2638
0.762957	32.1383
0.767361	32.0133
0.771792	31.8888
0.776247	31.7647
0.780728	31.6411
0.785236	31.5179
0.789769	31.3951
0.794328	31.2728
0.798914	31.1509
0.803526	31.0294
0.808165	30.9084
0.812831	30.7878
0.817523	30.6676
0.822243	30.5479
0.82699	30.4286
0.831764	30.3097
0.836566	30.1912
0.841395	30.0732
0.846253	29.9556
0.851138	29.8383
0.856052	29.7215
0.860994	29.6052
0.865964	29.4892
0.870964	29.3736
0.875992	29.2585
0.881049	29.1437
0.886135	29.0294
0.891251	28.9154
0.896396	28.8019
0.901571	28.6888
0.906776	28.576
0.912011	28.4637
0.917276	28.3517
0.922571	28.2402
0.927897	28.129
0.933254	28.0182
0.938642	27.9078
0.944061	27.7978
0.949511	27.6882
0.954993	27.579
0.960506	27.4701
0.966051	27.3617
0.971628	27.2536
0.977237	27.1459
0.982879	27.0386
0.988553	26.9316
0.99426	26.825
1	26.7188
1.00577	26.613
1.01158	26.5075
1.01742	26.4024
1.02329	26.2977
1.0292	26.1933
1.03514	26.0893
1.04112	25.9857
1.04713	25.8824
1.05317	25.7795
1.05925	25.6769
1.06537	25.5747
1.07152	25.4729
1.07771	25.3714
1.08393	25.2703
1.09018	25.1695
1.09648	25.0691
1.10281	24.969
1.10917	24.8692
1.11558	24.7699
1.12202	24.6708
1.1285	24.5721
1.13501	24.4738
1.14156	24.3758
1.14815	24.2781
1.15478	24.1808
1.16145	24.0838
1.16815	23.9872
1.1749	23.8909
1.18168	23.7949
1.1885	23.6993
1.19536	23.604
1.20226	23.509
1.20921	23.4144
1.21619	23.3201
1.22321	23.2261
1.23027	23.1325
1.23737	23.0391
1.24451	22.9461
1.2517	22.8535
1.25893	22.7611
1.26619	22.6691
1.2735	22.5774
1.28086	22.486
1.28825	22.395
1.29569	22.3042
1.30317	22.2138
1.31069	22.1237
1.31826	22.0339
1.32587	21.9445
1.33352	21.8553
1.34122	21.7665
1.34896	21.6779
1.35675	21.5897
1.36458	21.5018
1.37246	21.4142
1.38038	21.3269
1.38835	21.2399
1.39637	21.1532
1.40443	21.0669
1.41254	20.9808
1.42069	20.895
1.42889	20.8096
1.43714	20.7244
1.44544	20.6395
1.45378	20.555
1.46218	20.4707
1.47062	20.3868
1.47911	20.3031
1.48765	20.2197
1.49624	20.1366
1.50487	20.0539
1.51356	19.9714
1.5223	19.8892
1.53109	19.8073
1.53993	19.7257
1.54882	19.6444
1.55776	19.5633
1.56675	19.4826
1.5758	19.4021
1.58489	19.322
1.59404	19.2421
1.60325	19.1625
1.6125	19.0832
1.62181	19.0042
1.63117	18.9254
1.64059	18.847
1.65006	18.7688
1.65959	18.6909
1.66917	18.6133
1.6788	18.5359
1.6885	18.4589
1.69824	18.3821
1.70805	18.3056
1.71791	18.2293
1.72783	18.1534
1.7378	18.0777
1.74783	18.0023
1.75792	17.9271
1.76807	17.8523
1.77828	17.7777
1.78855	17.7034
1.79887	17.6293
1.80926	17.5555
1.8197	17.482
1.83021	17.4087
1.84077	17.3358
1.8514	17.263
1.86209	17.1906
1.87284	17.1184
1.88365	17.0465
1.89452	16.9748
1.90546	16.9034
1.91646	16.8322
1.92752	16.7614
1.93865	16.6907
1.94984	16.6204
1.9611	16.5503
1.97242	16.4804
1.98381	16.4108
1.99526	16.3415
2.00678	16.271
2.01837	16.1997
2.03002	16.1287
2.04174	16.058
2.05353	15.9876
2.06538	15.9175
2.0773	15.8477
2.0893	15.7795
2.10136	15.7103
2.11349	15.6414
2.12569	15.5727
2.13796	15.5043
2.1503	15.4363
2.16272	15.3684
2.1752	15.3009
2.18776	15.2337
2.20039	15.1667
2.21309	15.1
2.22587	15.0336
2.23872	14.9703
2.25165	14.9045
2.26464	14.8388
2.27772	14.7735
2.29087	14.7084
2.30409	14.6437
2.31739	14.5791
2.33077	14.5149
2.34423	14.4509
2.35776	14.3871
2.37137	14.3237
2.38506	14.2605
2.39883	14.1975
2.41268	14.1349
2.42661	14.0725
2.44062	14.0103
2.45471	13.9484
2.46888	13.8868
2.48313	13.8254
2.49747	13.7643
2.51189	13.663
2.52639	13.6018
2.54097	13.5445
2.55564	13.4838
2.5704	13.4234
2.58523	13.3632
2.60016	13.3033
2.61517	13.2436
2.63027	13.1842
2.64545	13.125
2.66073	13.0661
2.67609	13.0074
2.69153	12.949
2.70707	12.8908
2.7227	12.8329
2.73842	12.7752
2.75423	12.7177
2.77013	12.6605
2.78612	12.6035
2.80221	12.5468
2.81838	12.4903
2.83465	12.434
2.85102	12.378
2.86748	12.3222
2.88403	12.2667
2.90068	12.2113
2.91743	12.1563
2.93427	12.1014
2.95121	12.0468
2.96825	11.9924
2.98538	11.9494
3.00262	11.8954
3.01995	11.8416
3.03739	11.7881
3.05492	11.7348
3.07256	11.6817
3.0903	11.6288
3.10814	11.5762
3.12608	11.5237
3.14413	11.4715
3.16228	11.4196
3.18053	11.3678
3.1989	11.3163
3.21736	11.265
3.23594	11.2139
3.25462	11.163
3.27341	11.1123
3.2923	11.0619
3.31131	11.0116
3.33043	10.9616
3.34965	10.9118
3.36899	10.8622
3.38844	10.8128
3.408	10.7636
3.42768	10.7146
3.44747	10.6659
3.46737	10.6173
3.48739	10.569
3.50752	10.5208
3.52777	10.474
3.54813	10.4279
3.56862	10.3819
3.58922	10.3361
3.60994	10.2905
3.63078	10.2451
3.65174	10.1998
3.67282	10.1548
3.69403	10.1099
3.71535	10.0651
3.7368	10.0206
3.75837	9.97622
3.78007	9.93202
3.80189	9.88799
3.82384	9.84414
3.84592	9.80045
3.86812	9.75695
3.89045	9.71361
3.91291	9.67044
3.9355	9.62745
3.95822	9.58463
3.98107	9.54198
4.00405	9.49949
4.02717	9.45718
4.05042	9.41504
4.0738	9.37306
4.09732	9.33126
4.12098	9.28962
4.14477	9.24815
4.16869	9.20685
4.19276	9.16571
4.21697	9.12475
4.24131	9.08394
4.2658	9.04331
4.29042	9.00284
4.31519	8.96253
4.3401	8.92239
4.36516	8.88241
4.39036	8.84259
4.4157	8.80294
4.4412	8.76345
4.46684	8.72413
4.49262	8.69367
4.51856	8.65456
4.54465	8.61562
4.57088	8.57683
4.59727	8.53821
4.62381	8.49975
4.6505	8.46145
4.67735	8.4233
4.70435	8.38532
4.73151	8.34749
4.75883	8.30982
4.7863	8.27231
4.81393	8.23495
4.84172	8.19775
4.86968	8.16071
4.89779	8.12382
4.92606	8.08709
4.9545	8.05051
4.9831	8.01408
5.01187	7.97781
5.04081	7.94169
5.06991	7.90573
5.09918	7.86991
5.12861	7.83425
5.15822	7.79874
5.188	7.76337
5.21795	7.72816
5.24807	7.6931
5.27837	7.65818
5.30884	7.62342
5.33949	7.5888
5.37032	7.55433
5.40132	7.52
5.4325	7.48582
5.46387	7.45179
5.49541	7.4179
5.52713	7.38416
5.55904	7.35056
5.59114	7.31711
5.62341	7.2838
5.65588	7.25063
5.68853	7.21761
5.72137	7.18472
5.7544	7.15198
5.78762	7.11938
5.82103	7.08692
5.85464	7.05459
5.88844	7.02241
5.92243	6.99037
5.95662	6.95846
5.99101	6.92669
6.0256	6.89506
6.06038	6.86357
6.09537	6.83221
6.13056	6.80099
6.16595	6.7699
6.20155	6.73895
6.23735	6.70813
6.27336	6.67745
6.30957	6.6469
6.346	6.61648
6.38263	6.5862
6.41948	6.55604
6.45654	6.52602
6.49382	6.49613
6.53131	6.46637
6.56901	6.43674
6.60693	6.40723
6.64508	6.37786
6.68344	6.34862
6.72202	6.3195
6.76083	6.29051
6.79986	6.26165
6.83912	6.23291
6.8786	6.2043
6.91831	6.17582
6.95825	6.14746
6.99842	6.11922
7.03882	6.09111
7.07946	6.06312
7.12033	6.03526
7.16143	6.00751
7.20278	5.97989
7.24436	5.9524
7.28618	5.92502
7.32825	5.89776
7.37055	5.87063
7.4131	5.84361
7.4559	5.81672
7.49894	5.79272
7.54223	5.76601
7.58578	5.73941
7.62957	5.71294
7.67361	5.68658
7.71792	5.66034
7.76247	5.63422
7.80728	5.60821
7.85236	5.58232
7.89769	5.55654
7.94328	5.53087
7.98914	5.50533
8.03526	5.47989
8.08165	5.45457
8.12831	5.42936
8.17523	5.40426
8.22243	5.37927
8.2699	5.3544
8.31764	5.32963
8.36566	5.30498
8.41395	5.28044
8.46253	5.256
8.51138	5.23168
8.56052	5.20746
8.60994	5.18335
8.65964	5.15935
8.70964	5.13546
8.75992	5.11167
8.81049	5.08799
8.86135	5.06442
8.91251	5.04095
8.96396	5.01759
9.01571	4.99433
9.06776	4.97118
9.12011	4.94813
9.17276	4.92518
9.22571	4.90234
9.27897	4.8796
9.33254	4.85696
9.38642	4.83443
9.44061	4.81199
9.49511	4.78966
9.54993	4.76742
9.60506	4.74529
9.66051	4.72326
9.71628	4.70132
9.77237	4.67949
9.82879	4.65775
9.88553	4.63611
9.9426	4.61457
10	4.59313
10.0577	4.57178
10.1158	4.55053
10.1742	4.52938
10.2329	4.50832
10.292	4.48736
10.3514	4.46649
10.4112	4.44572
10.4713	4.42504
10.5317	4.40446
10.5925	4.38559
10.6537	4.36517
10.7152	4.34484
10.7771	4.3246
10.8393	4.30445
10.9018	4.28439
10.9648	4.26443
11.0281	4.24455
11.0917	4.22477
11.1558	4.20507
11.2202	4.18547
11.285	4.16596
11.3501	4.14653
11.4156	4.12719
11.4815	4.10795
11.5478	4.08878
11.6145	4.06971
11.6815	4.05073
11.749	4.03183
11.8168	4.01301
11.885	3.99429
11.9536	3.97565
12.0226	3.95709
12.0921	3.93862
12.1619	3.92023
12.2321	3.90193
12.3027	3.88371
12.3737	3.86558
12.4451	3.84753
12.517	3.82956
12.5893	3.81168
12.6619	3.79387
12.735	3.77615
12.8086	3.75851
12.8825	3.74095
12.9569	3.72347
13.0317	3.70607
13.1069	3.68876
13.1826	3.67152
13.2587	3.65436
13.3352	3.63728
13.4122	3.62028
13.4896	3.60336
13.5675	3.58651
13.6458	3.56975
13.7246	3.55306
13.8038	3.53644
13.8835	3.51991
13.9637	3.50345
14.0443	3.48707
14.1254	3.47076
14.2069	3.45453
14.2889	3.43837
14.3714	3.42229
14.4544	3.40628
14.5378	3.39035
14.6218	3.37449
14.7062	3.3587
14.7911	3.34299
14.8765	3.32735
14.9624	3.31178
15.0487	3.29629
15.1356	3.28086
15.223	3.26552
15.3109	3.25024
15.3993	3.23504
15.4882	3.21991
15.5776	3.20484
15.6675	3.18985
15.758	3.17493
15.8489	3.16007
15.9404	3.14529
16.0325	3.13057
16.125	3.11592
16.2181	3.10134
16.3117	3.08683
16.4059	3.07239
16.5006	3.05801
16.5959	3.0437
16.6917	3.02945
16.788	3.01528
16.885	3.00116
16.9824	2.98712
17.0805	2.97314
17.1791	2.95922
17.2783	2.94537
17.378	2.93158
17.4783	2.91786
17.5792	2.9042
17.6807	2.89061
17.7828	2.87708
17.8855	2.86361
17.9887	2.8502
18.0926	2.83686
18.197	2.82358
18.3021	2.81036
18.4077	2.79721
18.514	2.78411
18.6209	2.77108
18.7284	2.75811
18.8365	2.7452
18.9452	2.73234
19.0546	2.71955
19.1646	2.70682
19.2752	2.69415
19.3865	2.68154
19.4984	2.66899
19.611	2.65649
19.7242	2.64406
19.8381	2.63168
19.9526	2.61936
20.0678	2.6071
20.1837	2.59489
20.3002	2.58275
20.4174	2.57066
20.5353	2.55863
20.6538	2.54665
20.773	2.53473
20.893	2.52287
21.0136	2.51106
21.1349	2.49931
21.2569	2.48761
21.3796	2.47597
21.503	2.46438
21.6272	2.45285
21.752	2.44137
21.8776	2.42995
22.0039	2.41858
22.1309	2.40726
22.2587	2.396
22.3872	2.38479
22.5165	2.37363
22.6464	2.36253
22.7772	2.35148
22.9087	2.34048
23.0409	2.32953
23.1739	2.31863
23.3077	2.30779
23.4423	2.297
23.5776	2.28625
23.7137	2.27556
23.8506	2.26492
23.9883	2.25433
24.1268	2.24379
24.2661	2.2333
24.4062	2.22286
24.5471	2.21247
24.6888	2.20213
24.8313	2.19184
24.9747	2.1816
25.1189	2.1714
25.2639	2.16125
25.4097	2.15116
25.5564	2.14111
25.704	2.1311
25.8523	2.12115
26.0016	2.11124
26.1517	2.10138
26.3027	2.09157
26.4545	2.0818
26.6073	2.07208
26.7609	2.06241
26.9153	2.05278
27.0707	2.04319
27.227	2.03366
27.3842	2.02417
27.5423	2.01472
27.7013	2.00532
27.8612	1.99597
28.0221	1.98665
28.1838	1.97739
28.3465	1.96816
28.5102	1.95899
28.6748	1.94985
28.8403	1.94076
29.0068	1.93171
29.1743	1.92271
29.3427	1.91375
29.5121	1.90483
29.6825	1.89595
29.8538	1.88712
30.0262	1.87833
30.1995	1.86958
30.3739	1.86087
30.5492	1.85221
30.7256	1.84358
30.903	1.835
31.0814	1.82646
31.2608	1.81796
31.4413	1.8095
31.6228	1.80108
31.8053	1.7927
31.989	1.78437
32.1736	1.77607
32.3594	1.76781
32.5462	1.75959
32.7341	1.75141
32.923	1.74327
33.1131	1.73517
33.3043	1.72711
33.4965	1.71909
33.6899	1.7111
33.8844	1.70316
34.08	1.69525
34.2768	1.68738
34.4747	1.67955
34.6737	1.67175
34.8739	1.664
35.0752	1.65628
35.2777	1.6486
35.4813	1.64095
35.6862	1.63334
35.8922	1.62577
36.0994	1.61824
36.3078	1.61074
36.5174	1.60328
36.7282	1.59585
36.9403	1.58846
37.1535	1.58111
37.368	1.57379
37.5837	1.56651
37.8007	1.55926
38.0189	1.55205
38.2384	1.54487
38.4592	1.53773
38.6812	1.53062
38.9045	1.52354
39.1291	1.5165
39.355	1.5095
39.5822	1.50253
39.8107	1.49559
40.0405	1.48868
40.2717	1.48181
40.5042	1.47497
40.738	1.46817
40.9732	1.4614
41.2098	1.45466
41.4477	1.44795
41.6869	1.44128
41.9276	1.43464
42.1697	1.42803
42.4131	1.42146
42.658	1.41491
42.9042	1.4084
43.1519	1.40192
43.401	1.39547
43.6516	1.38905
43.9036	1.38267
44.157	1.37631
44.412	1.36999
44.6684	1.36369
44.9262	1.35743
45.1856	1.3512
45.4465	1.345
45.7088	1.33882
45.9727	1.33268
46.2381	1.32657
46.505	1.32049
46.7735	1.31444
47.0435	1.30841
47.3151	1.30242
47.5883	1.29646
47.863	1.29052
48.1393	1.28462
48.4172	1.27874
48.6968	1.27289
48.9779	1.26707
49.2606	1.26128
49.545	1.25552
49.831	1.24979
50.1187	1.24408
50.4081	1.2384
50.6991	1.23275
50.9918	1.22713
51.2861	1.22154
51.5822	1.21597
51.88	1.21043
52.1795	1.20491
52.4807	1.19943
52.7837	1.19397
53.0884	1.18854
53.3949	1.18313
53.7032	1.17775
54.0132	1.1724
54.325	1.16708
54.6387	1.16178
54.9541	1.1565
55.2713	1.15125
55.5904	1.14603
55.9114	1.14084
56.2341	1.13567
56.5588	1.13052
56.8853	1.1254
57.2137	1.12031
57.544	1.11524
57.8762	1.11019
58.2103	1.10517
58.5464	1.10018
58.8844	1.09521
59.2243	1.09026
59.5662	1.08534
59.9101	1.08044
60.256	1.07557
60.6038	1.07072
60.9537	1.0659
61.3056	1.0611
61.6595	1.05632
62.0155	1.05157
62.3735	1.04684
62.7336	1.04213
63.0957	1.03745
63.46	1.03279
63.8263	1.02815
64.1948	1.02354
64.5654	1.01895
64.9382	1.01438
65.3131	1.00984
65.6901	1.00531
66.0693	1.00081
66.4508	0.996336
66.8344	0.99188
67.2202	0.987447
67.6083	0.983036
67.9986	0.978646
68.3912	0.974278
68.786	0.969933
69.1831	0.965608
69.5825	0.961306
69.9842	0.957024
70.3882	0.952764
70.7946	0.948525
71.2033	0.944308
71.6143	0.940111
72.0278	0.935936
72.4436	0.931781
72.8618	0.927647
73.2825	0.923533
73.7055	0.91944
74.131	0.915368
74.559	0.911316
74.9894	0.907284
75.4223	0.903272
75.8578	0.89928
76.2957	0.895309
76.7361	0.891357
77.1792	0.887425
77.6247	0.883513
78.0728	0.87962
78.5236	0.875747
78.9769	0.871893
79.4328	0.868058
79.8914	0.864243
80.3526	0.860447
80.8165	0.85667
81.2831	0.852912
81.7523	0.849172
82.2243	0.845452
82.699	0.84175
83.1764	0.838067
83.6566	0.834402
84.1395	0.830756
84.6253	0.827128
85.1138	0.823518
85.6052	0.819927
86.0994	0.816354
86.5964	0.812798
87.0964	0.809261
87.5992	0.805741
88.1049	0.802239
88.6135	0.798755
89.1251	0.795288
89.6396	0.791839
90.1571	0.788407
90.6776	0.784993
91.2011	0.781596
91.7276	0.778216
92.2571	0.774853
92.7897	0.771507
93.3254	0.768178
93.8642	0.764866
94.4061	0.76157
94.9511	0.758292
95.4993	0.75503
96.0506	0.751784
96.6051	0.748555
97.1628	0.745342
97.7237	0.742146
98.2879	0.738966
98.8553	0.735802
99.426	0.732654
100	0.729522
100.577	0.726405
101.158	0.723305
101.742	0.720221
102.329	0.717152
102.92	0.714099
103.514	0.711061
104.112	0.708039
104.713	0.705032
105.317	0.702041
105.925	0.699064
106.537	0.696103
107.152	0.693158
107.771	0.690227
108.393	0.687311
109.018	0.68441
109.648	0.681523
110.281	0.678652
110.917	0.675795
111.558	0.672953
112.202	0.670125
112.85	0.667312
113.501	0.664514
114.156	0.661729
114.815	0.658959
115.478	0.656203
116.145	0.653461
116.815	0.650734
117.49	0.64802
118.168	0.64532
118.85	0.642634
119.536	0.639962
120.226	0.637304
120.921	0.634659
121.619	0.632028
122.321	0.62941
123.027	0.626806
123.737	0.624216
124.451	0.621638
125.17	0.619074
125.893	0.616524
126.619	0.613986
127.35	0.611461
128.086	0.60895
128.825	0.606451
129.569	0.603966
130.317	0.601493
131.069	0.599033
131.826	0.596586
132.587	0.594151
133.352	0.591729
134.122	0.58932
134.896	0.586923
135.675	0.584539
136.458	0.582166
137.246	0.579807
138.038	0.577459
138.835	0.575124
139.637	0.572801
140.443	0.57049
141.254	0.568191
142.069	0.565903
142.889	0.563628
143.714	0.561365
144.544	0.559113
145.378	0.556874
146.218	0.554645
147.062	0.552429
147.911	0.550224
148.765	0.548031
149.624	0.545849
150.487	0.543678
151.356	0.541519
152.23	0.539371
153.109	0.537235
153.993	0.535109
154.882	0.532995
155.776	0.530892
156.675	0.5288
157.58	0.526719
158.489	0.524649
159.404	0.522589
160.325	0.520541
161.25	0.518503
162.181	0.516476
163.117	0.51446
164.059	0.512454
165.006	0.510459
165.959	0.508475
166.917	0.506501
167.88	0.504537
168.85	0.502584
169.824	0.500641
170.805	0.498708
171.791	0.496786
172.783	0.494873
173.78	0.492971
174.783	0.491079
175.792	0.489197
176.807	0.487325
177.828	0.485463
178.855	0.483611
179.887	0.481769
180.926	0.479936
181.97	0.478114
183.021	0.4763
184.077	0.474497
185.14	0.472703
186.209	0.470919
187.284	0.469145
188.365	0.467379
189.452	0.465624
190.546	0.463877
191.646	0.46214
192.752	0.460413
193.865	0.458694
194.984	0.456985
196.11	0.455285
197.242	0.453594
198.381	0.451912
199.526	0.450239
200.678	0.448576
201.837	0.446921
203.002	0.445275
204.174	0.443638
205.353	0.44201
206.538	0.44039
207.73	0.43878
208.93	0.437178
210.136	0.435584
211.349	0.434
212.569	0.432424
213.796	0.430856
215.03	0.429297
216.272	0.427746
217.52	0.426204
218.776	0.42467
220.039	0.423145
221.309	0.421628
222.587	0.420119
223.872	0.418618
225.165	0.417126
226.464	0.415642
227.772	0.414166
229.087	0.412697
230.409	0.411237
231.739	0.409785
233.077	0.408341
234.423	0.406905
235.776	0.405477
237.137	0.404056
238.506	0.402643
239.883	0.401239
241.268	0.399841
242.661	0.398452
244.062	0.39707
245.471	0.395696
246.888	0.394329
248.313	0.39297
249.747	0.391619
251.189	0.390275
252.639	0.388938
254.097	0.387609
255.564	0.386287
257.04	0.384973
258.523	0.383666
260.016	0.382366
261.517	0.381073
263.027	0.379788
264.545	0.37851
266.073	0.377239
267.609	0.375975
269.153	0.374718
270.707	0.373468
272.27	0.372225
273.842	0.370989
275.423	0.36976
277.013	0.368538
278.612	0.367323
280.221	0.366115
281.838	0.364913
283.465	0.363719
285.102	0.362531
286.748	0.36135
288.403	0.360175
290.068	0.359007
291.743	0.357846
293.427	0.356691
295.121	0.355543
296.825	0.354401
298.538	0.353266
300.262	0.352138
301.995	0.351016
303.739	0.3499
305.492	0.34879
307.256	0.347687
309.03	0.346591
310.814	0.3455
312.608	0.344416
314.413	0.343338
316.228	0.342266
318.053	0.341201
319.89	0.340141
321.736	0.339088
323.594	0.338041
325.462	0.337
327.341	0.335965
329.23	0.334936
331.131	0.333913
333.043	0.332895
334.965	0.331884
336.899	0.330879
338.844	0.329879
340.8	0.328886
342.768	0.327898
344.747	0.326916
346.737	0.325939
348.739	0.324969
350.752	0.324004
352.777	0.323045
354.813	0.322091
356.862	0.321143
358.922	0.320201
360.994	0.319264
363.078	0.318333
365.174	0.317407
367.282	0.316487
369.403	0.315573
371.535	0.314663
373.68	0.31376
375.837	0.312861
378.007	0.311968
380.189	0.31108
382.384	0.310198
384.592	0.309321
386.812	0.308449
389.045	0.307582
391.291	0.306721
393.55	0.305865
395.822	0.305014
398.107	0.304168
400.405	0.303327
402.717	0.302492
405.042	0.301661
407.38	0.300836
409.732	0.300015
412.098	0.2992
414.477	0.29839
416.869	0.297584
419.276	0.296784
421.697	0.295988
424.131	0.295197
426.58	0.294412
429.042	0.293631
431.519	0.292854
434.01	0.292083
436.516	0.291317
439.036	0.290555
441.57	0.289798
444.12	0.289045
446.684	0.288298
449.262	0.287555
451.856	0.286817
454.465	0.286083
457.088	0.285354
459.727	0.284629
462.381	0.28391
465.05	0.283194
467.735	0.282483
470.435	0.281777
473.151	0.281075
475.883	0.280378
478.63	0.279685
481.393	0.278997
484.172	0.278313
486.968	0.277633
489.779	0.276958
492.606	0.276287
495.45	0.27562
498.31	0.274958
501.187	0.2743
504.081	0.273646
506.991	0.272997
509.918	0.272351
512.861	0.27171
515.822	0.271073
518.8	0.270441
521.795	0.269812
524.807	0.269188
527.837	0.268567
530.884	0.267951
533.949	0.267339
537.032	0.266731
540.132	0.266127
543.25	0.265527
546.387	0.264931
549.541	0.264339
552.713	0.263751
555.904	0.263167
559.114	0.262587
562.341	0.26201
565.588	0.261438
568.853	0.260869
572.137	0.260305
575.44	0.259744
578.762	0.259187
582.103	0.258634
585.464	0.258085
588.844	0.257539
592.243	0.256997
595.662	0.256459
599.101	0.255925
602.56	0.255394
606.038	0.254867
609.537	0.254344
613.056	0.253825
616.595	0.253309
620.155	0.252796
623.735	0.252288
627.336	0.251782
630.957	0.251281
634.6	0.250783
638.263	0.250288
641.948	0.249797
645.654	0.24931
649.382	0.248826
653.131	0.248346
656.901	0.247869
660.693	0.247395
664.508	0.246925
668.344	0.246458
672.202	0.245995
676.083	0.245535
679.986	0.245079
683.912	0.244626
687.86	0.244176
691.831	0.243729
695.825	0.243286
699.842	0.242846
703.882	0.24241
707.946	0.241976
712.033	0.241546
716.143	0.241119
720.278	0.240696
724.436	0.240275
728.618	0.239858
732.825	0.239444
737.055	0.239033
741.31	0.238625
745.59	0.238221
749.894	0.237819
754.223	0.237421
758.578	0.237026
762.957	0.236634
767.361	0.236245
771.792	0.235859
776.247	0.235476
780.728	0.235096
785.236	0.234719
789.769	0.234345
794.328	0.233974
798.914	0.233606
803.526	0.233241
808.165	0.232878
812.831	0.232519
817.523	0.232163
822.243	0.23181
826.99	0.231459
831.764	0.231112
836.566	0.230767
841.395	0.230425
846.253	0.230086
851.138	0.22975
856.052	0.229417
860.994	0.229086
865.964	0.228758
870.964	0.228433
875.992	0.228111
881.049	0.227791
886.135	0.227475
891.251	0.227161
896.396	0.226849
901.571	0.226541
906.776	0.226235
912.011	0.225932
917.276	0.225631
922.571	0.225333
927.897	0.225038
933.254	0.22474
938.642	0.224439
944.061	0.22414
949.511	0.223844
954.993	0.223551
960.506	0.223259
966.051	0.222971
971.628	0.222684
977.237	0.2224
982.879	0.222119
988.553	0.22184
994.26	0.221563
1000	0.221289
1005.77	0.221017
1011.58	0.220747
1017.42	0.22048
1023.29	0.220215
1029.2	0.219953
1035.14	0.219693
1041.12	0.219435
1047.13	0.219179
1053.17	0.218926
1059.25	0.218675
1065.37	0.218426
1071.52	0.218179
1077.71	0.217935
1083.93	0.217693
1090.18	0.217453
1096.48	0.217216
1102.81	0.21698
1109.17	0.216747
1115.58	0.216516
1122.02	0.216287
1128.5	0.21606
1135.01	0.215836
1141.56	0.215613
1148.15	0.215393
1154.78	0.215175
1161.45	0.214959
1168.15	0.214745
1174.9	0.214533
1181.68	0.214323
1188.5	0.214115
1195.36	0.213909
1202.26	0.213706
1209.21	0.213504
1216.19	0.213304
1223.21	0.213107
1230.27	0.212911
1237.37	0.212718
1244.51	0.212526
1251.7	0.212336
1258.93	0.212149
1266.19	0.211963
1273.5	0.211779
1280.86	0.211597
1288.25	0.211417
1295.69	0.211239
1303.17	0.211063
1310.69	0.210889
1318.26	0.210717
1325.87	0.210546
1333.52	0.210378
1341.22	0.210211
1348.96	0.210046
1356.75	0.209883
1364.58	0.209722
1372.46	0.209563
1380.38	0.209405
1388.35	0.209249
1396.37	0.209095
1404.43	0.208943
1412.54	0.208793
1420.69	0.208644
1428.89	0.208498
1437.14	0.208352
1445.44	0.208209
1453.78	0.208067
1462.18	0.207928
1470.62	0.207789
1479.11	0.207653
1487.65	0.207518
1496.24	0.207385
1504.87	0.207254
1513.56	0.207124
1522.3	0.206996
1531.09	0.206869
1539.93	0.206745
1548.82	0.206621
1557.76	0.2065
1566.75	0.20638
1575.8	0.206262
1584.89	0.206145
1594.04	0.20603
1603.25	0.205917
1612.5	0.205805
1621.81	0.205694
1631.17	0.205585
1640.59	0.205478
1650.06	0.205372
1659.59	0.205268
1669.17	0.205166
1678.8	0.205064
1688.5	0.204965
1698.24	0.204867
1708.05	0.20477
1717.91	0.204675
1727.83	0.204581
1737.8	0.204489
1747.83	0.204398
1757.92	0.204309
1768.07	0.204221
1778.28	0.204135
1788.55	0.20405
1798.87	0.203966
1809.26	0.203884
1819.7	0.203803
1830.21	0.203724
1840.77	0.203646
1851.4	0.20357
1862.09	0.203494
1872.84	0.203421
1883.65	0.203348
1894.52	0.203277
1905.46	0.203207
1916.46	0.203139
1927.52	0.203072
1938.65	0.203006
1949.84	0.202941
1961.1	0.202878
1972.42	0.202816
1983.81	0.202756
1995.26	0.202697
2006.78	0.202638
2018.37	0.202582
2030.02	0.202526
2041.74	0.202472
2053.53	0.202419
2065.38	0.202367
2077.3	0.202317
2089.3	0.202267
2101.36	0.202219
2113.49	0.202173
2125.69	0.202127
2137.96	0.202082
2150.3	0.202039
2162.72	0.201997
2175.2	0.201956
2187.76	0.201916
2200.39	0.201878
2213.09	0.20184
2225.87	0.201804
2238.72	0.201769
2251.65	0.201735
2264.64	0.201702
2277.72	0.20167
2290.87	0.20164
2304.09	0.20161
2317.39	0.201582
2330.77	0.201554
2344.23	0.201528
2357.76	0.201503
2371.37	0.201479
2385.06	0.201456
2398.83	0.201434
2412.68	0.201413
2426.61	0.201393
2440.62	0.201374
2454.71	0.201356
2468.88	0.201339
2483.13	0.201323
2497.47	0.201309
2511.89	0.201295
2526.39	0.201282
2540.97	0.20127
2555.64	0.20126
2570.4	0.20125
2585.23	0.201241
2600.16	0.201233
2615.17	0.201226
2630.27	0.20122
2645.45	0.201215
2660.73	0.201211
2676.09	0.201208
2691.53	0.201206
2707.07	0.201205
2722.7	0.201204
2738.42	0.201205
2754.23	0.201207
2770.13	0.201209
2786.12	0.201212
2802.21	0.201216
2818.38	0.201222
2834.65	0.201227
2851.02	0.201234
2867.48	0.201242
2884.03	0.201251
2900.68	0.20126
2917.43	0.20127
2934.27	0.201281
2951.21	0.201293
2968.25	0.201306
2985.38	0.20132
3002.62	0.201334
3019.95	0.201349
3037.39	0.201365
3054.92	0.201382
3072.56	0.2014
3090.3	0.201418
3108.14	0.201437
3126.08	0.201457
3144.13	0.201478
3162.28	0.201499
3180.53	0.201522
3198.9	0.201545
3217.36	0.201569
3235.94	0.201593
3254.62	0.201618
3273.41	0.201645
3292.3	0.201671
3311.31	0.201699
3330.43	0.201727
3349.65	0.201756
3368.99	0.201786
3388.44	0.201816
3408	0.201847
3427.68	0.201879
3447.47	0.201911
3467.37	0.201944
3487.39	0.201978
3507.52	0.202013
3527.77	0.202048
3548.13	0.202084
3568.62	0.20212
3589.22	0.202157
3609.94	0.202195
3630.78	0.202233
3651.74	0.202272
3672.82	0.202312
3694.03	0.202352
3715.35	0.202393
3736.8	0.202435
3758.37	0.202477
3780.07	0.20252
3801.89	0.202563
3823.84	0.202607
3845.92	0.202652
3868.12	0.202697
3890.45	0.202743
3912.91	0.20279
3935.5	0.202836
3958.22	0.202884
3981.07	0.202932
4004.05	0.202981
4027.17	0.20303
4050.42	0.20308
4073.8	0.20313
4097.32	0.203181
4120.98	0.203233
4144.77	0.203285
4168.69	0.203337
4192.76	0.20339
4216.97	0.203444
4241.31	0.203498
4265.8	0.203552
4290.42	0.203608
4315.19	0.203663
4340.1	0.203719
4365.16	0.203776
4390.36	0.203833
4415.7	0.203891
4441.2	0.203949
4466.84	0.204007
4492.62	0.204067
4518.56	0.204126
4544.65	0.204186
4570.88	0.204247
4597.27	0.204308
4623.81	0.204369
4650.5	0.204431
4677.35	0.204493
4704.35	0.204556
4731.51	0.204619
4758.83	0.204683
4786.3	0.204747
4813.93	0.204812
4841.72	0.204877
4869.68	0.204942
4897.79	0.205008
4926.06	0.205074
4954.5	0.205141
4983.1	0.205208
5011.87	0.205275
5040.81	0.205343
5069.91	0.205411
5099.18	0.20548
5128.61	0.205549
5158.22	0.205619
5188	0.205688
5217.95	0.205759
5248.07	0.205829
5278.37	0.2059
5308.84	0.205972
5339.49	0.206043
5370.32	0.206115
5401.32	0.206188
5432.5	0.206261
5463.87	0.206334
5495.41	0.206407
5527.13	0.206481
5559.04	0.206555
5591.14	0.20663
5623.41	0.206705
5655.88	0.20678
5688.53	0.206856
5721.37	0.206931
5754.4	0.207008
5787.62	0.207084
5821.03	0.207161
5854.64	0.207238
5888.44	0.207316
5922.43	0.207393
5956.62	0.207472
5991.01	0.20755
6025.6	0.207629
6060.38	0.207708
6095.37	0.207787
6130.56	0.207866
6165.95	0.207946
6201.55	0.208026
6237.35	0.208107
6273.36	0.208188
6309.57	0.208269
6346	0.20835
6382.63	0.208431
6419.48	0.208513
6456.54	0.208595
6493.82	0.208678
6531.31	0.20876
6569.01	0.208843
6606.93	0.208926
6645.08	0.20901
6683.44	0.209093
6722.02	0.209177
6760.83	0.209261
6799.86	0.209346
6839.12	0.20943
6878.6	0.209515
6918.31	0.2096
6958.25	0.209685
6998.42	0.209771
7038.82	0.209857
7079.46	0.209943
7120.33	0.210029
7161.43	0.210115
7202.78	0.210202
7244.36	0.210289
7286.18	0.210376
7328.25	0.210463
7370.55	0.21055
7413.1	0.210638
7455.9	0.210726
7498.94	0.210814
7542.23	0.210902
7585.78	0.210991
7629.57	0.211079
7673.61	0.211168
7717.92	0.211257
7762.47	0.211347
7807.28	0.211436
7852.36	0.211526
7897.69	0.211615
7943.28	0.211705
7989.14	0.211795
8035.26	0.211886
8081.65	0.211976
8128.31	0.212067
8175.23	0.212158
8222.43	0.212249
8269.9	0.21234
8317.64	0.212431
8365.66	0.212523
8413.95	0.212614
8462.53	0.212706
8511.38	0.212798
8560.52	0.21289
8609.94	0.212982
8659.64	0.213074
8709.64	0.213167
8759.92	0.21326
8810.49	0.213352
8861.35	0.213445
8912.51	0.213538
8963.96	0.213632
9015.71	0.213725
9067.76	0.213818
9120.11	0.213912
9172.76	0.214006
9225.71	0.2141
9278.97	0.214194
9332.54	0.214288
9386.42	0.214382
9440.61	0.214476
9495.11	0.214571
9549.93	0.214665
9605.06	0.21476
9660.51	0.214855
9716.28	0.21495
9772.37	0.215045
9828.79	0.21514
9885.53	0.215235
9942.6	0.21533
10000	0.215426
10057.7	0.215521
10115.8	0.215617
10174.2	0.215713
10232.9	0.215809
10292	0.215905
10351.4	0.216001
10411.2	0.216097
10471.3	0.216193
10531.7	0.216289
10592.5	0.216386
10653.7	0.216482
10715.2	0.216579
10777.1	0.216675
10839.3	0.216772
10901.8	0.216869
10964.8	0.216966
11028.1	0.217063
11091.7	0.21716
11155.8	0.217257
11220.2	0.217354
11285	0.217451
11350.1	0.217549
11415.6	0.217646
11481.5	0.217744
11547.8	0.217841
11614.5	0.217939
11681.5	0.218036
11749	0.218134
11816.8	0.218232
11885	0.21833
11953.6	0.218428
12022.6	0.218526
12092.1	0.218624
12161.9	0.218722
12232.1	0.21882
12302.7	0.218918
12373.7	0.219016
12445.1	0.219115
12517	0.219213
12589.3	0.219312
12661.9	0.21941
12735	0.219509
12808.6	0.219607
12882.5	0.219706
12956.9	0.219804
13031.7	0.219903
13106.9	0.220002
13182.6	0.220101
13258.7	0.220199
13335.2	0.220298
13412.2	0.220397
13489.6	0.220496
13567.5	0.220595
13645.8	0.220694
13724.6	0.220793
13803.8	0.220892
13883.5	0.220991
13963.7	0.22109
14044.3	0.221189
14125.4	0.221289
14206.9	0.221388
14288.9	0.221487
14371.4	0.221586
14454.4	0.221686
14537.8	0.221785
14621.8	0.221884
14706.2	0.221984
14791.1	0.222083
14876.5	0.222183
14962.4	0.222282
15048.7	0.222381
15135.6	0.222481
15223	0.22258
15310.9	0.22268
15399.3	0.222779
15488.2	0.222879
15577.6	0.222979
15667.5	0.223078
15758	0.223178
15848.9	0.223277
15940.4	0.223377
16032.5	0.223477
16125	0.223576
16218.1	0.223676
16311.7	0.223776
16405.9	0.223875
16500.6	0.223975
16595.9	0.224075
16691.7	0.224174
16788	0.224274
16885	0.224374
16982.4	0.224473
17080.5	0.224573
17179.1	0.224673
17278.3	0.224773
17378	0.224872
17478.3	0.224972
17579.2	0.225072
17680.7	0.225171
17782.8	0.225271
17885.5	0.225371
17988.7	0.225471
18092.6	0.22557
18197	0.22567
18302.1	0.22577
18407.7	0.22587
18514	0.225969
18620.9	0.226069
18728.4	0.226169
18836.5	0.226268
18945.2	0.226368
19054.6	0.226468
19164.6	0.226567
19275.2	0.226667
19386.5	0.226767
19498.4	0.226866
19611	0.226966
19724.2	0.227066
19838.1	0.227165
19952.6	0.227265
20067.8	0.227365
20183.7	0.227464
20300.2	0.227564
20417.4	0.227663
20535.3	0.227763
20653.8	0.227862
20773	0.227962
20893	0.228061
21013.6	0.228161
21134.9	0.22826
21256.9	0.22836
21379.6	0.228459
21503	0.228559
21627.2	0.228658
21752	0.228758
21877.6	0.228857
22003.9	0.228956
22130.9	0.229056
22258.7	0.229155
22387.2	0.229254
22516.5	0.229354
22646.4	0.229453
22777.2	0.229552
22908.7	0.229651
23040.9	0.229751
23173.9	0.22985
23307.7	0.229949
23442.3	0.230048
23577.6	0.230147
23713.7	0.230246
23850.6	0.230346
23988.3	0.230445
24126.8	0.230544
24266.1	0.230643
24406.2	0.230742
24547.1	0.230841
24688.8	0.23094
24831.3	0.231039
24974.7	0.231138
25118.9	0.231236
25263.9	0.231335
25409.7	0.231434
25556.4	0.231533
25704	0.231632
25852.3	0.23173
26001.6	0.231829
26151.7	0.231928
26302.7	0.232027
26454.5	0.232125
26607.3	0.232224
26760.9	0.232322
26915.3	0.232421
27070.7	0.23252
27227	0.232618
27384.2	0.232717
27542.3	0.232815
27701.3	0.232914
27861.2	0.233012
28022.1	0.23311
28183.8	0.233209
28346.5	0.233307
28510.2	0.233405
28674.8	0.233504
28840.3	0.233602
29006.8	0.2337
29174.3	0.233798
29342.7	0.233896
29512.1	0.233994
29682.5	0.234093
29853.8	0.234191
30026.2	0.234289
30199.5	0.234387
30373.9	0.234485
30549.2	0.234583
30725.6	0.23468
30903	0.234778
31081.4	0.234876
31260.8	0.234974
31441.3	0.235072
31622.8	0.235169
31805.3	0.235267
31989	0.235365
32173.6	0.235463
32359.4	0.23556
32546.2	0.235658
32734.1	0.235755
32923	0.235853
33113.1	0.23595
33304.3	0.236048
33496.5	0.236145
33689.9	0.236243
33884.4	0.23634
34080	0.236437
34276.8	0.236535
34474.7	0.236632
34673.7	0.236729
34873.9	0.236826
35075.2	0.236924
35277.7	0.237021
35481.3	0.237118
35686.2	0.237215
35892.2	0.237312
36099.4	0.237409
36307.8	0.237506
36517.4	0.237603
36728.2	0.2377
36940.3	0.237797
37153.5	0.237893
37368	0.23799
37583.7	0.238087
37800.7	0.238184
38018.9	0.23828
38238.4	0.238377
38459.2	0.238474
38681.2	0.23857
38904.5	0.238667
39129.1	0.238763
39355	0.23886
39582.2	0.238956
39810.7	0.239053
40040.5	0.239149
40271.7	0.239246
40504.2	0.239342
40738	0.239438
40973.2	0.239535
41209.8	0.239631
41447.7	0.239727
41686.9	0.239823
41927.6	0.239919
42169.7	0.240015
42413.1	0.240112
42658	0.240208
42904.2	0.240304
43151.9	0.2404
43401	0.240496
43651.6	0.240591
43903.6	0.240687
44157	0.240783
44412	0.240879
44668.4	0.240975
44926.2	0.24107
45185.6	0.241166
45446.5	0.241262
45708.8	0.241358
45972.7	0.241453
46238.1	0.241549
46505	0.241644
46773.5	0.24174
47043.5	0.241835
47315.1	0.241931
47588.3	0.242026
47863	0.242122
48139.3	0.242217
48417.2	0.242312
48696.8	0.242407
48977.9	0.242503
49260.6	0.242598
49545	0.242693
49831	0.242788
50118.7	0.242883
50408.1	0.242979
50699.1	0.243074
50991.8	0.243169
51286.1	0.243264
51582.2	0.243359
51880	0.243454
52179.5	0.243548
52480.7	0.243643
52783.7	0.243738
53088.4	0.243833
53394.9	0.243928
53703.2	0.244023
54013.2	0.244117
54325	0.244212
54638.7	0.244307
54954.1	0.244401
55271.3	0.244496
55590.4	0.24459
55911.4	0.244685
56234.1	0.244779
56558.8	0.244874
56885.3	0.244968
57213.7	0.245063
57544	0.245157
57876.2	0.245252
58210.3	0.245346
58546.4	0.24544
58884.4	0.245534
59224.3	0.245629
59566.2	0.245723
59910.1	0.245817
60256	0.245911
60603.8	0.246005
60953.7	0.246099
61305.6	0.246194
61659.5	0.246288
62015.5	0.246382
62373.5	0.246476
62733.6	0.246569
63095.7	0.246663
63460	0.246757
63826.3	0.246851
64194.8	0.246945
64565.4	0.247039
64938.2	0.247133
65313.1	0.247226
65690.1	0.24732
66069.3	0.247414
66450.8	0.247507
66834.4	0.247601
67220.2	0.247695
67608.3	0.247788
67998.6	0.247882
68391.2	0.247975
68786	0.248069
69183.1	0.248162
69582.5	0.248256
69984.2	0.248349
70388.2	0.248443
70794.6	0.248536
71203.3	0.24863
71614.3	0.248723
72027.8	0.248816
72443.6	0.248909
72861.8	0.249003
73282.5	0.249096
73705.5	0.249189
74131	0.249282
74559	0.249375
74989.4	0.249469
75422.3	0.249562
75857.8	0.249655
76295.7	0.249748
76736.1	0.249841
77179.2	0.249934
77624.7	0.250027
78072.8	0.25012
78523.6	0.250213
78976.9	0.250306
79432.8	0.250399
79891.4	0.250492
80352.6	0.250584
80816.5	0.250677
81283.1	0.25077
81752.3	0.250863
82224.3	0.250956
82699	0.251048
83176.4	0.251141
83656.6	0.251234
84139.5	0.251326
84625.3	0.251419
85113.8	0.251512
85605.2	0.251604
86099.4	0.251697
86596.4	0.25179
87096.4	0.251882
87599.2	0.251975
88104.9	0.252067
88613.5	0.25216
89125.1	0.252252
89639.6	0.252345
90157.1	0.252437
90677.6	0.252529
91201.1	0.252622
91727.6	0.252714
92257.1	0.252807
92789.7	0.252899
93325.4	0.252991
93864.2	0.253083
94406.1	0.253176
94951.1	0.253268
95499.3	0.25336
96050.6	0.253453
96605.1	0.253545
97162.8	0.253637
97723.7	0.253729
98287.9	0.253821
98855.3	0.253913
99426	0.254006
100000	0.254098
100577	0.25419
101158	0.254282
101742	0.254374
102329	0.254466
102920	0.254558
103514	0.25465
104112	0.254742
104713	0.254834
105317	0.254926
105925	0.255018
106537	0.25511
107152	0.255202
107771	0.255293
108393	0.255385
109018	0.255477
109648	0.255569
110281	0.255661
110917	0.255753
111558	0.255844
112202	0.255936
112850	0.256028
113501	0.25612
114156	0.256211
114815	0.256303
115478	0.256395
116145	0.256486
116815	0.256578
117490	0.25667
118168	0.256761
118850	0.256853
119536	0.256944
120226	0.257036
120921	0.257127
121619	0.257219
122321	0.25731
123027	0.257402
123737	0.257493
124451	0.257584
125170	0.257676
125893	0.257767
126619	0.257858
127350	0.25795
128086	0.258041
128825	0.258132
129569	0.258223
130317	0.258315
131069	0.258406
131826	0.258497
132587	0.258588
133352	0.258679
134122	0.25877
134896	0.258861
135675	0.258952
136458	0.259043
137246	0.259134
138038	0.259225
138835	0.259316
139637	0.259407
140443	0.259498
141254	0.259589
142069	0.25968
142889	0.259771
143714	0.259862
144544	0.259952
145378	0.260043
146218	0.260134
147062	0.260224
147911	0.260315
148765	0.260406
149624	0.260496
150487	0.260587
151356	0.260677
152230	0.260768
153109	0.260859
153993	0.260949
154882	0.261039
155776	0.26113
156675	0.26122
157580	0.261311
158489	0.261401
159404	0.261491
160325	0.261582
161250	0.261672
162181	0.261762
163117	0.261852
164059	0.261942
165006	0.262033
165959	0.262123
166917	0.262213
167880	0.262303
168850	0.262393
169824	0.262483
170805	0.262573
171791	0.262663
172783	0.262753
173780	0.262842
174783	0.262932
175792	0.263022
176807	0.263112
177828	0.263202
178855	0.263291
179887	0.263381
180926	0.263471
181970	0.26356
183021	0.26365
184077	0.263739
185140	0.263829
186209	0.263918
187284	0.264008
188365	0.264097
189452	0.264187
190546	0.264276
191646	0.264365
192752	0.264455
193865	0.264544
194984	0.264633
196110	0.264722
197242	0.264812
198381	0.264901
199526	0.26499
200678	0.265079
201837	0.265168
203002	0.265257
204174	0.265346
205353	0.265435
206538	0.265524
207730	0.265613
208930	0.265701
210136	0.26579
211349	0.265879
212569	0.265968
213796	0.266056
215030	0.266145
216272	0.266234
217520	0.266322
218776	0.266411
220039	0.266499
221309	0.266588
222587	0.266676
223872	0.266765
225165	0.266853
226464	0.266941
227772	0.267029
229087	0.267118
230409	0.267206
231739	0.267294
233077	0.267382
234423	0.26747
235776	0.267558
237137	0.267646
238506	0.267734
239883	0.267822
241268	0.26791
242661	0.267998
244062	0.268086
245471	0.268174
246888	0.268261
248313	0.268349
249747	0.268437
251189	0.268525
252639	0.268612
254097	0.2687
255564	0.268787
257040	0.268875
258523	0.268962
260016	0.269049
261517	0.269137
263027	0.269224
264545	0.269311
266073	0.269399
267609	0.269486
269153	0.269573
270707	0.26966
272270	0.269747
273842	0.269834
275423	0.269921
277013	0.270008
278612	0.270095
280221	0.270182
281838	0.270269
283465	0.270356
285102	0.270442
286748	0.270529
288403	0.270616
290068	0.270702
291743	0.270789
293427	0.270875
295121	0.270962
296825	0.271048
298538	0.271135
300262	0.271221
301995	0.271307
303739	0.271394
305492	0.27148
307256	0.271566
309030	0.271652
310814	0.271738
312608	0.271824
314413	0.27191
316228	0.271996
318053	0.272082
319890	0.272168
321736	0.272254
323594	0.27234
325462	0.272425
327341	0.272511
329230	0.272597
331131	0.272682
333043	0.272768
334965	0.272853
336899	0.272939
338844	0.273024
340800	0.273109
342768	0.273195
344747	0.27328
346737	0.273365
348739	0.27345
350752	0.273536
352777	0.273621
354813	0.273706
356862	0.273791
358922	0.273876
360994	0.273961
363078	0.274045
365174	0.27413
367282	0.274215
369403	0.2743
371535	0.274384
373680	0.274469
375837	0.274554
378007	0.274638
380189	0.274723
382384	0.274807
384592	0.274891
386812	0.274976
389045	0.27506
391291	0.275144
393550	0.275228
395822	0.275312
398107	0.275397
400405	0.275481
402717	0.275565
405042	0.275648
407380	0.275732
409732	0.275816
412098	0.2759
414477	0.275984
416869	0.276067
419276	0.276151
421697	0.276235
424131	0.276318
426580	0.276402
429042	0.276485
431519	0.276568
434010	0.276652
436516	0.276735
439036	0.276818
441570	0.276901
444120	0.276984
446684	0.277068
449262	0.277151
451856	0.277234
454465	0.277316
457088	0.277399
459727	0.277482
462381	0.277565
465050	0.277648
467735	0.27773
470435	0.277813
473151	0.277895
475883	0.277978
478630	0.27806
481393	0.278143
484172	0.278225
486968	0.278307
489779	0.27839
492606	0.278472
495450	0.278554
498310	0.278636
501187	0.278718
504081	0.2788
506991	0.278882
509918	0.278964
512861	0.279046
515822	0.279127
518800	0.279209
521795	0.279291
524807	0.279372
527837	0.279454
530884	0.279535
533949	0.279617
537032	0.279698
540132	0.279779
543250	0.279861
546387	0.279942
549541	0.280023
552713	0.280104
555904	0.280185
559114	0.280266
562341	0.280347
565588	0.280428
568853	0.280509
572137	0.280589
575440	0.28067
578762	0.280751
582103	0.280831
585464	0.280912
588844	0.280992
592243	0.281073
595662	0.281153
599101	0.281233
602560	0.281314
606038	0.281394
609537	0.281474
613056	0.281554
616595	0.281634
620155	0.281714
623735	0.281794
627336	0.281874
630957	0.281954
634600	0.282033
638263	0.282113
641948	0.282193
645654	0.282272
649382	0.282352
653131	0.282431
656901	0.282511
660693	0.28259
664508	0.282669
668344	0.282748
672202	0.282828
676083	0.282907
679986	0.282986
683912	0.283065
687860	0.283144
691831	0.283223
695825	0.283301
699842	0.28338
703882	0.283459
707946	0.283537
712033	0.283616
716143	0.283695
720278	0.283773
724436	0.283851
728618	0.28393
732825	0.284008
737055	0.284086
741310	0.284164
745590	0.284242
749894	0.284321
754223	0.284399
758578	0.284476
762957	0.284554
767361	0.284632
771792	0.28471
776247	0.284788
780728	0.284865
785236	0.284943
789769	0.28502
794328	0.285098
798914	0.285175
803526	0.285252
808165	0.28533
812831	0.285407
817523	0.285484
822243	0.285561
826990	0.285638
831764	0.285715
836566	0.285792
841395	0.285869
846253	0.285946
851138	0.286022
856052	0.286099
860994	0.286175
865964	0.286252
870964	0.286328
875992	0.286405
881049	0.286481
886135	0.286558
891251	0.286634
896396	0.28671
901571	0.286786
906776	0.286862
912011	0.286938
917276	0.287014
922571	0.28709
927897	0.287166
933254	0.287241
938642	0.287317
944061	0.287393
949511	0.287468
954993	0.287544
960506	0.287619
966051	0.287694
971628	0.28777
977237	0.287845
982879	0.28792
988553	0.287995
994260	0.28807
1e+06	0.288145
1.00577e+06	0.28822
1.01158e+06	0.288295
1.01742e+06	0.28837
1.02329e+06	0.288445
1.0292e+06	0.288519
1.03514e+06	0.288594
1.04112e+06	0.288668
1.04713e+06	0.288743
1.05317e+06	0.288817
1.05925e+06	0.288892
1.06537e+06	0.288966
1.07152e+06	0.28904
1.07771e+06	0.289114
1.08393e+06	0.289189
1.09018e+06	0.289263
1.09648e+06	0.289337
1.10281e+06	0.289411
1.10917e+06	0.289484
1.11558e+06	0.289558
1.12202e+06	0.289632
1.1285e+06	0.289706
1.13501e+06	0.289779
1.14156e+06	0.289853
1.14815e+06	0.289926
1.15478e+06	0.29
1.16145e+06	0.290073
1.16815e+06	0.290146
1.1749e+06	0.29022
1.18168e+06	0.290293
1.1885e+06	0.290366
1.19536e+06	0.290439
1.20226e+06	0.290512
1.20921e+06	0.290585
1.21619e+06	0.290658
1.22321e+06	0.29073
1.23027e+06	0.290803
1.23737e+06	0.290876
1.24451e+06	0.290948
1.2517e+06	0.291021
1.25893e+06	0.291093
1.26619e+06	0.291166
1.2735e+06	0.291238
1.28086e+06	0.29131
1.28825e+06	0.291383
1.29569e+06	0.291455
1.30317e+06	0.291527
1.31069e+06	0.291599
1.31826e+06	0.291671
1.32587e+06	0.291743
1.33352e+06	0.291815
1.34122e+06	0.291886
1.34896e+06	0.291958
1.35675e+06	0.29203
1.36458e+06	0.292101
1.37246e+06	0.292173
1.38038e+06	0.292244
1.38835e+06	0.292316
1.39637e+06	0.292387
1.40443e+06	0.292458
1.41254e+06	0.29253
1.42069e+06	0.292601
1.42889e+06	0.292672
1.43714e+06	0.292743
1.44544e+06	0.292814
1.45378e+06	0.292885
1.46218e+06	0.292955
1.47062e+06	0.293026
1.47911e+06	0.293097
1.48765e+06	0.293168
1.49624e+06	0.293238
1.50487e+06	0.293309
1.51356e+06	0.293379
1.5223e+06	0.293449
1.53109e+06	0.29352
1.53993e+06	0.29359
1.54882e+06	0.29366
1.55776e+06	0.29373
1.56675e+06	0.2938
1.5758e+06	0.29387
1.58489e+06	0.29394
1.59404e+06	0.29401
1.60325e+06	0.29408
1.6125e+06	0.29415
1.62181e+06	0.29422
1.63117e+06	0.294289
1.64059e+06	0.294359
1.65006e+06	0.294428
1.65959e+06	0.294498
1.66917e+06	0.294567
1.6788e+06	0.294636
1.6885e+06	0.294706
1.69824e+06	0.294775
1.70805e+06	0.294844
1.71791e+06	0.294913
1.72783e+06	0.294982
1.7378e+06	0.295051
1.74783e+06	0.29512
1.75792e+06	0.295189
1.76807e+06	0.295257
1.77828e+06	0.295326
1.78855e+06	0.295395
1.79887e+06	0.295463
1.80926e+06	0.295532
1.8197e+06	0.2956
1.83021e+06	0.295669
1.84077e+06	0.295737
1.8514e+06	0.295805
1.86209e+06	0.295873
1.87284e+06	0.295941
1.88365e+06	0.29601
1.89452e+06	0.296078
1.90546e+06	0.296146
1.91646e+06	0.296213
1.92752e+06	0.296281
1.93865e+06	0.296349
1.94984e+06	0.296417
1.9611e+06	0.296484
1.97242e+06	0.296552
1.98381e+06	0.296619
1.99526e+06	0.296648
2.00678e+06	0.296636
2.01837e+06	0.296625
2.03002e+06	0.296613
2.04174e+06	0.296602
2.05353e+06	0.296591
2.06538e+06	0.296579
2.0773e+06	0.296568
2.0893e+06	0.296557
2.10136e+06	0.296547
2.11349e+06	0.296536
2.12569e+06	0.296526
2.13796e+06	0.296515
2.1503e+06	0.296505
2.16272e+06	0.296495
2.1752e+06	0.296485
2.18776e+06	0.296475
2.20039e+06	0.296465
2.21309e+06	0.296455
2.22587e+06	0.296446
2.23872e+06	0.296436
2.25165e+06	0.296427
2.26464e+06	0.296417
2.27772e+06	0.296408
2.29087e+06	0.296399
2.30409e+06	0.29639
2.31739e+06	0.296381
2.33077e+06	0.296373
2.34423e+06	0.296364
2.35776e+06	0.296355
2.37137e+06	0.296347
2.38506e+06	0.296339
2.39883e+06	0.29633
2.41268e+06	0.296322
2.42661e+06	0.296314
2.44062e+06	0.296306
2.45471e+06	0.296298
2.46888e+06	0.29629
2.48313e+06	0.296283
2.49747e+06	0.296275
2.51189e+06	0.296267
2.52639e+06	0.29626
2.54097e+06	0.296253
2.55564e+06	0.296245
2.5704e+06	0.296238
2.58523e+06	0.296231
2.60016e+06	0.296224
2.61517e+06	0.296217
2.63027e+06	0.29621
2.64545e+06	0.296203
2.66073e+06	0.296197
2.67609e+06	0.29619
2.69153e+06	0.296183
2.70707e+06	0.296177
2.7227e+06	0.296171
2.73842e+06	0.296164
2.75423e+06	0.296158
2.77013e+06	0.296152
2.78612e+06	0.296146
2.80221e+06	0.29614
2.81838e+06	0.296134
2.83465e+06	0.296128
2.85102e+06	0.296122
2.86748e+06	0.296116
2.88403e+06	0.29611
2.90068e+06	0.296105
2.91743e+06	0.296099
2.93427e+06	0.296093
2.95121e+06	0.296088
2.96825e+06	0.296083
2.98538e+06	0.296077
3.00262e+06	0.296072
3.01995e+06	0.296067
3.03739e+06	0.296062
3.05492e+06	0.296057
3.07256e+06	0.296051
3.0903e+06	0.296046
3.10814e+06	0.296042
3.12608e+06	0.296037
3.14413e+06	0.296032
3.16228e+06	0.296027
3.18053e+06	0.296022
3.1989e+06	0.296018
3.21736e+06	0.296013
3.23594e+06	0.296009
3.25462e+06	0.296004
3.27341e+06	0.296
3.2923e+06	0.295995
3.31131e+06	0.295991
3.33043e+06	0.295987
3.34965e+06	0.295982
3.36899e+06	0.295978
3.38844e+06	0.295974
3.408e+06	0.29597
3.42768e+06	0.295966
3.44747e+06	0.295962
3.46737e+06	0.295958
3.48739e+06	0.295954
3.50752e+06	0.29595
3.52777e+06	0.295946
3.54813e+06	0.295943
3.56862e+06	0.295939
3.58922e+06	0.295935
3.60994e+06	0.295932
3.63078e+06	0.295928
3.65174e+06	0.295924
3.67282e+06	0.295921
3.69403e+06	0.295917
3.71535e+06	0.295914
3.7368e+06	0.29591
3.75837e+06	0.295907
3.78007e+06	0.295904
3.80189e+06	0.2959
3.82384e+06	0.295897
3.84592e+06	0.295894
3.86812e+06	0.295891
3.89045e+06	0.295888
3.91291e+06	0.295885
3.9355e+06	0.295881
3.95822e+06	0.295878
3.98107e+06	0.295875
4.00405e+06	0.295872
4.02717e+06	0.29587
4.05042e+06	0.295867
4.0738e+06	0.295864
4.09732e+06	0.295861
4.12098e+06	0.295858
4.14477e+06	0.295855
4.16869e+06	0.295853
4.19276e+06	0.29585
4.21697e+06	0.295847
4.24131e+06	0.295845
4.2658e+06	0.295842
4.29042e+06	0.295839
4.31519e+06	0.295837
4.3401e+06	0.295834
4.36516e+06	0.295832
4.39036e+06	0.295829
4.4157e+06	0.295827
4.4412e+06	0.295824
4.46684e+06	0.295822
4.49262e+06	0.29582
4.51856e+06	0.295817
4.54465e+06	0.295815
4.57088e+06	0.295813
4.59727e+06	0.295811
4.62381e+06	0.295808
4.6505e+06	0.295806
4.67735e+06	0.295804
4.70435e+06	0.295802
4.73151e+06	0.2958
4.75883e+06	0.295798
4.7863e+06	0.295796
4.81393e+06	0.295793
4.84172e+06	0.295791
4.86968e+06	0.295789
4.89779e+06	0.295787
4.92606e+06	0.295785
4.9545e+06	0.295784
4.9831e+06	0.295782
5.01187e+06	0.29578
5.04081e+06	0.295778
5.06991e+06	0.295776
5.09918e+06	0.295774
5.12861e+06	0.295772
5.15822e+06	0.295771
5.188e+06	0.295769
5.21795e+06	0.295767
5.24807e+06	0.295765
5.27837e+06	0.295764
5.30884e+06	0.295762
5.33949e+06	0.29576
5.37032e+06	0.295759
5.40132e+06	0.295757
5.4325e+06	0.295755
5.46387e+06	0.295754
5.49541e+06	0.295752
5.52713e+06	0.295751
5.55904e+06	0.295749
5.59114e+06	0.295748
5.62341e+06	0.295746
5.65588e+06	0.295745
5.68853e+06	0.295743
5.72137e+06	0.295742
5.7544e+06	0.29574
5.78762e+06	0.295739
5.82103e+06	0.295737
5.85464e+06	0.295736
5.88844e+06	0.295735
5.92243e+06	0.295733
5.95662e+06	0.295732
5.99101e+06	0.295731
6.0256e+06	0.295729
6.06038e+06	0.295728
6.09537e+06	0.295727
6.13056e+06	0.295725
6.16595e+06	0.295724
6.20155e+06	0.295723
6.23735e+06	0.295722
6.27336e+06	0.295721
6.30957e+06	0.295719
6.346e+06	0.295718
6.38263e+06	0.295717
6.41948e+06	0.295716
6.45654e+06	0.295715
6.49382e+06	0.295714
6.53131e+06	0.295712
6.56901e+06	0.295711
6.60693e+06	0.29571
6.64508e+06	0.295709
6.68344e+06	0.295708
6.72202e+06	0.295707
6.76083e+06	0.295706
6.79986e+06	0.295705
6.83912e+06	0.295704
6.8786e+06	0.295703
6.91831e+06	0.295702
6.95825e+06	0.295701
6.99842e+06	0.2957
7.03882e+06	0.295699
7.07946e+06	0.295698
7.12033e+06	0.295697
7.16143e+06	0.295696
7.20278e+06	0.295695
7.24436e+06	0.295694
7.28618e+06	0.295693
7.32825e+06	0.295693
7.37055e+06	0.295692
7.4131e+06	0.295691
7.4559e+06	0.29569
7.49894e+06	0.295689
7.54223e+06	0.295688
7.58578e+06	0.295687
7.62957e+06	0.295687
7.67361e+06	0.295686
7.71792e+06	0.295685
7.76247e+06	0.295684
7.80728e+06	0.295683
7.85236e+06	0.295683
7.89769e+06	0.295682
7.94328e+06	0.295681
7.98914e+06	0.29568
8.03526e+06	0.29568
8.08165e+06	0.295679
8.12831e+06	0.295678
8.17523e+06	0.295678
8.22243e+06	0.295677
8.2699e+06	0.295676
8.31764e+06	0.295675
8.36566e+06	0.295675
8.41395e+06	0.295674
8.46253e+06	0.295673
8.51138e+06	0.295673
8.56052e+06	0.295672
8.60994e+06	0.295672
8.65964e+06	0.295671
8.70964e+06	0.29567
8.75992e+06	0.29567
8.81049e+06	0.295669
8.86135e+06	0.295668
8.91251e+06	0.295668
8.96396e+06	0.295667
9.01571e+06	0.295667
9.06776e+06	0.295666
9.12011e+06	0.295665
9.17276e+06	0.295665
9.22571e+06	0.295664
9.27897e+06	0.295664
9.33254e+06	0.295663
9.38642e+06	0.295663
9.44061e+06	0.295662
9.49511e+06	0.295662
9.54993e+06	0.295661
9.60506e+06	0.295661
9.66051e+06	0.29566
9.71628e+06	0.29566
9.77237e+06	0.295659
9.82879e+06	0.295659
9.88553e+06	0.295658
9.9426e+06	0.295658
1e+07	0.295657
