Stopping power dEdx from Ionisation for triton Z = 1 in Water, process name: hIoni
E [MeV]	dEdx [MeV/mm]
0.001	9.93182
0.00100577	9.96044
0.00101158	9.98915
0.00101742	10.0179
0.00102329	10.0468
0.0010292	10.0758
0.00103514	10.1048
0.00104112	10.1339
0.00104713	10.1632
0.00105317	10.1925
0.00105925	10.2218
0.00106537	10.2513
0.00107152	10.2808
0.00107771	10.3105
0.00108393	10.3402
0.00109018	10.37
0.00109648	10.3999
0.00110281	10.4299
0.00110917	10.4599
0.00111558	10.4901
0.00112202	10.5203
0.0011285	10.5506
0.00113501	10.581
0.00114156	10.6115
0.00114815	10.6421
0.00115478	10.6728
0.00116145	10.7036
0.00116815	10.7344
0.0011749	10.7654
0.00118168	10.7964
0.0011885	10.8275
0.00119536	10.8587
0.00120226	10.89
0.00120921	10.9214
0.00121619	10.9529
0.00122321	10.9845
0.00123027	11.0161
0.00123737	11.0479
0.00124451	11.0797
0.0012517	11.1117
0.00125893	11.1437
0.00126619	11.1758
0.0012735	11.208
0.00128086	11.2403
0.00128825	11.2727
0.00129569	11.3052
0.00130317	11.3378
0.00131069	11.3705
0.00131826	11.4033
0.00132587	11.4361
0.00133352	11.4691
0.00134122	11.5021
0.00134896	11.5353
0.00135675	11.5685
0.00136458	11.6019
0.00137246	11.6353
0.00138038	11.6689
0.00138835	11.7025
0.00139637	11.7362
0.00140443	11.7701
0.00141254	11.804
0.00142069	11.838
0.00142889	11.8721
0.00143714	11.9064
0.00144544	11.9407
0.00145378	11.9751
0.00146218	12.0096
0.00147062	12.0442
0.00147911	12.0789
0.00148765	12.1138
0.00149624	12.1487
0.00150487	12.1837
0.00151356	12.2188
0.0015223	12.254
0.00153109	12.2893
0.00153993	12.3248
0.00154882	12.3603
0.00155776	12.3959
0.00156675	12.4316
0.0015758	12.4675
0.00158489	12.5034
0.00159404	12.5395
0.00160325	12.5756
0.0016125	12.6118
0.00162181	12.6482
0.00163117	12.6847
0.00164059	12.7212
0.00165006	12.7579
0.00165959	12.7947
0.00166917	12.8315
0.0016788	12.8685
0.0016885	12.9056
0.00169824	12.9428
0.00170805	12.9801
0.00171791	13.0175
0.00172783	13.0551
0.0017378	13.0927
0.00174783	13.1304
0.00175792	13.1683
0.00176807	13.2062
0.00177828	13.2443
0.00178855	13.2825
0.00179887	13.3208
0.00180926	13.3591
0.0018197	13.3977
0.00183021	13.4363
0.00184077	13.475
0.0018514	13.5138
0.00186209	13.5528
0.00187284	13.5919
0.00188365	13.631
0.00189452	13.6703
0.00190546	13.7097
0.00191646	13.7492
0.00192752	13.7889
0.00193865	13.8286
0.00194984	13.8685
0.0019611	13.9084
0.00197242	13.9485
0.00198381	13.9887
0.00199526	14.0291
0.00200678	14.0695
0.00201837	14.1101
0.00203002	14.1507
0.00204174	14.1915
0.00205353	14.2324
0.00206538	14.2734
0.0020773	14.3146
0.0020893	14.3558
0.00210136	14.3972
0.00211349	14.4387
0.00212569	14.4803
0.00213796	14.5221
0.0021503	14.5639
0.00216272	14.6059
0.0021752	14.648
0.00218776	14.6902
0.00220039	14.7326
0.00221309	14.775
0.00222587	14.8176
0.00223872	14.8603
0.00225165	14.9032
0.00226464	14.9461
0.00227772	14.9892
0.00229087	15.0324
0.00230409	15.0757
0.00231739	15.1192
0.00233077	15.1628
0.00234423	15.2065
0.00235776	15.2503
0.00237137	15.2943
0.00238506	15.3384
0.00239883	15.3826
0.00241268	15.4269
0.00242661	15.4714
0.00244062	15.516
0.00245471	15.5607
0.00246888	15.6055
0.00248313	15.6505
0.00249747	15.6956
0.00251189	15.7409
0.00252639	15.7862
0.00254097	15.8317
0.00255564	15.8774
0.0025704	15.9231
0.00258523	15.969
0.00260016	16.0151
0.00261517	16.0612
0.00263027	16.1075
0.00264545	16.1539
0.00266073	16.2005
0.00267609	16.2472
0.00269153	16.294
0.00270707	16.341
0.0027227	16.3881
0.00273842	16.4353
0.00275423	16.4827
0.00277013	16.5302
0.00278612	16.5779
0.00280221	16.6257
0.00281838	16.6736
0.00283465	16.7216
0.00285102	16.7698
0.00286748	16.8182
0.00288403	16.8666
0.00290068	16.9153
0.00291743	16.964
0.00293427	17.0129
0.00295121	17.062
0.00296825	17.1111
0.00298538	17.1605
0.00300262	17.2099
0.00301995	17.2595
0.00303739	17.3093
0.00305492	17.3592
0.00307256	17.4092
0.0030903	17.4594
0.00310814	17.5097
0.00312608	17.5602
0.00314413	17.6108
0.00316228	17.6615
0.00318053	17.7125
0.0031989	17.7635
0.00321736	17.8147
0.00323594	17.8661
0.00325462	17.9176
0.00327341	17.9692
0.0032923	18.021
0.00331131	18.0729
0.00333043	18.125
0.00334965	18.1773
0.00336899	18.2297
0.00338844	18.2822
0.003408	18.3349
0.00342768	18.3878
0.00344747	18.4408
0.00346737	18.4939
0.00348739	18.5472
0.00350752	18.6007
0.00352777	18.6543
0.00354813	18.7081
0.00356862	18.762
0.00358922	18.8161
0.00360994	18.8703
0.00363078	18.9247
0.00365174	18.9792
0.00367282	19.0339
0.00369403	19.0888
0.00371535	19.1438
0.0037368	19.199
0.00375837	19.2543
0.00378007	19.3098
0.00380189	19.3655
0.00382384	19.4213
0.00384592	19.4773
0.00386812	19.5334
0.00389045	19.5897
0.00391291	19.6462
0.0039355	19.7028
0.00395822	19.7596
0.00398107	19.8166
0.00400405	19.8737
0.00402717	19.931
0.00405042	19.9884
0.0040738	20.046
0.00409732	20.1038
0.00412098	20.1618
0.00414477	20.2199
0.00416869	20.2782
0.00419276	20.3366
0.00421697	20.3952
0.00424131	20.454
0.0042658	20.513
0.00429042	20.5721
0.00431519	20.6314
0.0043401	20.6909
0.00436516	20.7505
0.00439036	20.8103
0.0044157	20.8703
0.0044412	20.9305
0.00446684	20.9908
0.00449262	21.0513
0.00451856	21.112
0.00454465	21.1728
0.00457088	21.2338
0.00459727	21.2951
0.00462381	21.3564
0.0046505	21.418
0.00467735	21.4797
0.00470435	21.5416
0.00473151	21.6037
0.00475883	21.666
0.0047863	21.7284
0.00481393	21.7911
0.00484172	21.8539
0.00486968	21.9169
0.00489779	21.9801
0.00492606	22.0434
0.0049545	22.1069
0.0049831	22.1707
0.00501187	22.2346
0.00504081	22.2987
0.00506991	22.3629
0.00509918	22.4274
0.00512861	22.492
0.00515822	22.5569
0.005188	22.6219
0.00521795	22.6871
0.00524807	22.7525
0.00527837	22.8181
0.00530884	22.8838
0.00533949	22.9498
0.00537032	23.0159
0.00540132	23.0823
0.0054325	23.1488
0.00546387	23.2155
0.00549541	23.2825
0.00552713	23.3496
0.00555904	23.4169
0.00559114	23.4844
0.00562341	23.552
0.00565588	23.6199
0.00568853	23.688
0.00572137	23.7563
0.0057544	23.8248
0.00578762	23.8934
0.00582103	23.9623
0.00585464	24.0314
0.00588844	24.1006
0.00592243	24.1701
0.00595662	24.2398
0.00599101	24.3096
0.0060256	24.3797
0.00606038	24.45
0.00609537	24.5205
0.00613056	24.5911
0.00616595	24.662
0.00620155	24.7331
0.00623735	24.8044
0.00627336	24.8759
0.00630957	24.9476
0.006346	25.0195
0.00638263	25.0916
0.00641948	25.1639
0.00645654	25.2365
0.00649382	25.3092
0.00653131	25.3822
0.00656901	25.4553
0.00660693	25.5287
0.00664508	25.6023
0.00668344	25.6761
0.00672202	25.7501
0.00676083	25.8243
0.00679986	25.8987
0.00683912	25.9734
0.0068786	26.0483
0.00691831	26.1233
0.00695825	26.1986
0.00699842	26.2742
0.00703882	26.3499
0.00707946	26.4258
0.00712033	26.502
0.00716143	26.5784
0.00720278	26.655
0.00724436	26.7318
0.00728618	26.8089
0.00732825	26.8862
0.00737055	26.9637
0.0074131	27.0414
0.0074559	27.1193
0.00749894	27.1975
0.00754223	27.2759
0.00758578	27.3545
0.00762957	27.4333
0.00767361	27.5124
0.00771792	27.5917
0.00776247	27.6712
0.00780728	27.751
0.00785236	27.831
0.00789769	27.9112
0.00794328	27.9917
0.00798914	28.0723
0.00803526	28.1533
0.00808165	28.2344
0.00812831	28.3158
0.00817523	28.3974
0.00822243	28.4793
0.0082699	28.5613
0.00831764	28.6437
0.00836566	28.7262
0.00841395	28.809
0.00846253	28.8921
0.00851138	28.9754
0.00856052	29.0589
0.00860994	29.1426
0.00865964	29.2266
0.00870964	29.3109
0.00875992	29.3954
0.00881049	29.4801
0.00886135	29.5651
0.00891251	29.6503
0.00896396	29.7357
0.00901571	29.8214
0.00906776	29.9074
0.00912011	29.9936
0.00917276	30.0801
0.00922571	30.1668
0.00927897	30.2537
0.00933254	30.3409
0.00938642	30.4284
0.00944061	30.5161
0.00949511	30.604
0.00954993	30.6922
0.00960506	30.7807
0.00966051	30.8694
0.00971628	30.9584
0.00977237	31.0476
0.00982879	31.1371
0.00988553	31.2269
0.0099426	31.3169
0.01	31.4072
0.0100577	31.4977
0.0101158	31.5885
0.0101742	31.6795
0.0102329	31.7708
0.010292	31.8624
0.0103514	31.9543
0.0104112	32.0464
0.0104713	32.1387
0.0105317	32.2314
0.0105925	32.3243
0.0106537	32.4174
0.0107152	32.5109
0.0107771	32.6046
0.0108393	32.6986
0.0109018	32.7928
0.0109648	32.8873
0.0110281	32.9821
0.0110917	33.0772
0.0111558	33.1725
0.0112202	33.2682
0.011285	33.364
0.0113501	33.4602
0.0114156	33.5567
0.0114815	33.6534
0.0115478	33.7504
0.0116145	33.8477
0.0116815	33.9452
0.011749	34.0431
0.0118168	34.1412
0.011885	34.2396
0.0119536	34.3383
0.0120226	34.4373
0.0120921	34.5365
0.0121619	34.6361
0.0122321	34.7359
0.0123027	34.836
0.0123737	34.9364
0.0124451	35.0371
0.012517	35.1381
0.0125893	35.2394
0.0126619	35.341
0.012735	35.4429
0.0128086	35.545
0.0128825	35.6475
0.0129569	35.7502
0.0130317	35.8533
0.0131069	35.9566
0.0131826	36.0602
0.0132587	36.1642
0.0133352	36.2684
0.0134122	36.373
0.0134896	36.4778
0.0135675	36.5829
0.0136458	36.6884
0.0137246	36.7941
0.0138038	36.9002
0.0138835	37.0066
0.0139637	37.1132
0.0140443	37.2202
0.0141254	37.3275
0.0142069	37.4351
0.0142889	37.543
0.0143714	37.6512
0.0144544	37.7597
0.0145378	37.8686
0.0146218	37.9777
0.0147062	38.0872
0.0147911	38.197
0.0148765	38.307
0.0149624	38.4175
0.0150487	38.5282
0.0151356	38.6393
0.015223	38.7506
0.0153109	38.8623
0.0153993	38.9743
0.0154882	39.0867
0.0155776	39.1993
0.0156675	39.3123
0.015758	39.4256
0.0158489	39.5393
0.0159404	39.6532
0.0160325	39.7675
0.016125	39.8822
0.0162181	39.9971
0.0163117	40.1124
0.0164059	40.228
0.0165006	40.344
0.0165959	40.4603
0.0166917	40.5769
0.016788	40.6938
0.016885	40.8111
0.0169824	40.9288
0.0170805	41.0467
0.0171791	41.1651
0.0172783	41.2837
0.017378	41.4027
0.0174783	41.522
0.0175792	41.6417
0.0176807	41.7618
0.0177828	41.8821
0.0178855	42.0028
0.0179887	42.1239
0.0180926	42.2453
0.018197	42.3671
0.0183021	42.4892
0.0184077	42.6117
0.018514	42.7345
0.0186209	42.8577
0.0187284	42.9812
0.0188365	43.1051
0.0189452	43.2293
0.0190546	43.354
0.0191646	43.4789
0.0192752	43.6042
0.0193865	43.7299
0.0194984	43.856
0.019611	43.9824
0.0197242	44.1092
0.0198381	44.2363
0.0199526	44.3638
0.0200678	44.4917
0.0201837	44.6199
0.0203002	44.7485
0.0204174	44.8775
0.0205353	45.0069
0.0206538	45.1366
0.020773	45.2667
0.020893	45.3972
0.0210136	45.528
0.0211349	45.6592
0.0212569	45.7908
0.0213796	45.9228
0.021503	46.0552
0.0216272	46.188
0.021752	46.3211
0.0218776	46.4546
0.0220039	46.5885
0.0221309	46.7228
0.0222587	46.8575
0.0223872	46.9925
0.0225165	47.128
0.0226464	47.2638
0.0227772	47.4
0.0229087	47.5367
0.0230409	47.6737
0.0231739	47.8111
0.0233077	47.9489
0.0234423	48.0871
0.0235776	48.2257
0.0237137	48.3647
0.0238506	48.5041
0.0239883	48.6439
0.0241268	48.7841
0.0242661	48.9248
0.0244062	49.0658
0.0245471	49.2072
0.0246888	49.349
0.0248313	49.4913
0.0249747	49.6339
0.0251189	49.777
0.0252639	49.9205
0.0254097	50.0644
0.0255564	50.2087
0.025704	50.3534
0.0258523	50.4985
0.0260016	50.6441
0.0261517	50.7901
0.0263027	50.9365
0.0264545	51.0833
0.0266073	51.2305
0.0267609	51.3782
0.0269153	51.5263
0.0270707	51.6748
0.027227	51.8237
0.0273842	51.9731
0.0275423	52.1229
0.0277013	52.2732
0.0278612	52.4238
0.0280221	52.5749
0.0281838	52.7265
0.0283465	52.8784
0.0285102	53.0309
0.0286748	53.1837
0.0288403	53.337
0.0290068	53.4908
0.0291743	53.6449
0.0293427	53.7996
0.0295121	53.9546
0.0296825	54.1101
0.0298538	54.2661
0.0300262	54.4225
0.0301995	54.5734
0.0303739	54.7071
0.0305492	54.841
0.0307256	54.9752
0.030903	55.1097
0.0310814	55.2444
0.0312608	55.3794
0.0314413	55.5147
0.0316228	55.6501
0.0318053	55.7859
0.031989	55.9219
0.0321736	56.0581
0.0323594	56.1946
0.0325462	56.3313
0.0327341	56.4683
0.032923	56.6056
0.0331131	56.7431
0.0333043	56.8808
0.0334965	57.0188
0.0336899	57.157
0.0338844	57.2955
0.03408	57.4342
0.0342768	57.5732
0.0344747	57.7124
0.0346737	57.8519
0.0348739	57.9916
0.0350752	58.1316
0.0352777	58.2717
0.0354813	58.4122
0.0356862	58.5529
0.0358922	58.6938
0.0360994	58.8349
0.0363078	58.9763
0.0365174	59.1179
0.0367282	59.2598
0.0369403	59.4019
0.0371535	59.5442
0.037368	59.6868
0.0375837	59.8296
0.0378007	59.9726
0.0380189	60.1159
0.0382384	60.2594
0.0384592	60.4031
0.0386812	60.5471
0.0389045	60.6913
0.0391291	60.8357
0.039355	60.9803
0.0395822	61.1251
0.0398107	61.2702
0.0400405	61.4155
0.0402717	61.561
0.0405042	61.7068
0.040738	61.8527
0.0409732	61.9989
0.0412098	62.1453
0.0414477	62.2919
0.0416869	62.4387
0.0419276	62.5857
0.0421697	62.733
0.0424131	62.8804
0.042658	63.0281
0.0429042	63.176
0.0431519	63.324
0.043401	63.4723
0.0436516	63.6208
0.0439036	63.7694
0.044157	63.9183
0.044412	64.0674
0.0446684	64.2167
0.0449262	64.3661
0.0451856	64.5158
0.0454465	64.6656
0.0457088	64.8157
0.0459727	64.9659
0.0462381	65.1163
0.046505	65.2669
0.0467735	65.4177
0.0470435	65.5686
0.0473151	65.7198
0.0475883	65.8711
0.047863	66.0226
0.0481393	66.1742
0.0484172	66.3261
0.0486968	66.4781
0.0489779	66.6302
0.0492606	66.7826
0.049545	66.9351
0.049831	67.0877
0.0501187	67.2406
0.0504081	67.3935
0.0506991	67.5467
0.0509918	67.7
0.0512861	67.8534
0.0515822	68.007
0.05188	68.1607
0.0521795	68.3146
0.0524807	68.4686
0.0527837	68.6228
0.0530884	68.777
0.0533949	68.9315
0.0537032	69.086
0.0540132	69.2407
0.054325	69.3955
0.0546387	69.5505
0.0549541	69.7055
0.0552713	69.8607
0.0555904	70.016
0.0559114	70.1714
0.0562341	70.3269
0.0565588	70.4825
0.0568853	70.6383
0.0572137	70.7941
0.057544	70.95
0.0578762	71.106
0.0582103	71.2622
0.0585464	71.4184
0.0588844	71.5747
0.0592243	71.731
0.0595662	71.8875
0.0599101	72.044
0.060256	72.2006
0.0606038	72.3573
0.0609537	72.5141
0.0613056	72.6709
0.0616595	72.8278
0.0620155	72.9847
0.0623735	73.1417
0.0627336	73.2987
0.0630957	73.4558
0.06346	73.6129
0.0638263	73.7701
0.0641948	73.9273
0.0645654	74.0845
0.0649382	74.2418
0.0653131	74.3991
0.0656901	74.5564
0.0660693	74.7138
0.0664508	74.8711
0.0668344	75.0284
0.0672202	75.1858
0.0676083	75.3432
0.0679986	75.5005
0.0683912	75.6579
0.068786	75.8152
0.0691831	75.9725
0.0695825	76.1299
0.0699842	76.2871
0.0703882	76.4444
0.0707946	76.6016
0.0712033	76.7588
0.0716143	76.9159
0.0720278	77.073
0.0724436	77.2301
0.0728618	77.3871
0.0732825	77.544
0.0737055	77.7009
0.074131	77.8577
0.074559	78.0144
0.0749894	78.1711
0.0754223	78.3276
0.0758578	78.4841
0.0762957	78.6405
0.0767361	78.7968
0.0771792	78.9529
0.0776247	79.109
0.0780728	79.2649
0.0785236	79.4208
0.0789769	79.5765
0.0794328	79.7321
0.0798914	79.8875
0.0803526	80.0428
0.0808165	80.198
0.0812831	80.353
0.0817523	80.5078
0.0822243	80.6625
0.082699	80.817
0.0831764	80.9713
0.0836566	81.1255
0.0841395	81.2794
0.0846253	81.4332
0.0851138	81.5868
0.0856052	81.7401
0.0860994	81.8933
0.0865964	82.0462
0.0870964	82.199
0.0875992	82.3514
0.0881049	82.5037
0.0886135	82.6557
0.0891251	82.8075
0.0896396	82.959
0.0901571	83.1102
0.0906776	83.2612
0.0912011	83.4119
0.0917276	83.5623
0.0922571	83.7124
0.0927897	83.8623
0.0933254	84.0118
0.0938642	84.161
0.0944061	84.3099
0.0949511	84.4585
0.0954993	84.6068
0.0960506	84.7547
0.0966051	84.9023
0.0971628	85.0495
0.0977237	85.1964
0.0982879	85.3429
0.0988553	85.489
0.099426	85.6347
0.1	85.7801
0.100577	85.9251
0.101158	86.0696
0.101742	86.2138
0.102329	86.3575
0.10292	86.5008
0.103514	86.6437
0.104112	86.7861
0.104713	86.9281
0.105317	87.0696
0.105925	87.2107
0.106537	87.3513
0.107152	87.4914
0.107771	87.631
0.108393	87.7701
0.109018	87.9087
0.109648	88.0469
0.110281	88.1844
0.110917	88.3215
0.111558	88.458
0.112202	88.594
0.11285	88.7294
0.113501	88.8642
0.114156	88.9985
0.114815	89.1322
0.115478	89.2653
0.116145	89.3978
0.116815	89.5297
0.11749	89.661
0.118168	89.7916
0.11885	89.9216
0.119536	90.051
0.120226	90.1797
0.120921	90.3078
0.121619	90.4352
0.122321	90.5619
0.123027	90.688
0.123737	90.8133
0.124451	90.9379
0.12517	91.0618
0.125893	91.185
0.126619	91.3075
0.12735	91.4292
0.128086	91.5502
0.128825	91.6704
0.129569	91.7898
0.130317	91.9084
0.131069	92.0263
0.131826	92.1434
0.132587	92.2596
0.133352	92.375
0.134122	92.4896
0.134896	92.6034
0.135675	92.7163
0.136458	92.8284
0.137246	92.9396
0.138038	93.0499
0.138835	93.1593
0.139637	93.2679
0.140443	93.3755
0.141254	93.4822
0.142069	93.588
0.142889	93.6929
0.143714	93.7968
0.144544	93.8998
0.145378	94.0017
0.146218	94.1028
0.147062	94.2028
0.147911	94.3019
0.148765	94.3999
0.149624	94.4969
0.150487	94.5929
0.151356	94.6879
0.15223	94.7818
0.153109	94.8747
0.153993	94.9665
0.154882	95.0573
0.155776	95.147
0.156675	95.2355
0.15758	95.323
0.158489	95.4094
0.159404	95.4946
0.160325	95.5787
0.16125	95.6617
0.162181	95.7435
0.163117	95.8241
0.164059	95.9036
0.165006	95.9819
0.165959	96.059
0.166917	96.135
0.16788	96.2097
0.16885	96.2832
0.169824	96.3554
0.170805	96.4264
0.171791	96.4962
0.172783	96.5647
0.17378	96.632
0.174783	96.698
0.175792	96.7627
0.176807	96.8261
0.177828	96.8882
0.178855	96.9489
0.179887	97.0084
0.180926	97.0665
0.18197	97.1233
0.183021	97.1788
0.184077	97.2328
0.18514	97.2855
0.186209	97.3369
0.187284	97.3868
0.188365	97.4354
0.189452	97.4825
0.190546	97.5283
0.191646	97.5726
0.192752	97.6155
0.193865	97.657
0.194984	97.697
0.19611	97.7355
0.197242	97.7726
0.198381	97.8082
0.199526	97.8424
0.200678	97.8751
0.201837	97.9062
0.203002	97.9359
0.204174	97.964
0.205353	97.9907
0.206538	98.0158
0.20773	98.0394
0.20893	98.0614
0.210136	98.0819
0.211349	98.1008
0.212569	98.1182
0.213796	98.134
0.21503	98.1482
0.216272	98.1608
0.21752	98.1719
0.218776	98.1814
0.220039	98.1892
0.221309	98.1955
0.222587	98.2001
0.223872	98.2031
0.225165	98.2045
0.226464	98.2042
0.227772	98.2023
0.229087	98.1988
0.230409	98.1936
0.231739	98.1868
0.233077	98.1783
0.234423	98.1681
0.235776	98.1563
0.237137	98.1428
0.238506	98.1276
0.239883	98.1107
0.241268	98.0921
0.242661	98.0718
0.244062	98.0499
0.245471	98.0262
0.246888	98.0008
0.248313	97.9738
0.249747	97.945
0.251189	97.9145
0.252639	97.8822
0.254097	97.8483
0.255564	97.8126
0.25704	97.7752
0.258523	97.736
0.260016	97.6952
0.261517	97.6526
0.263027	97.6082
0.264545	97.5621
0.266073	97.5143
0.267609	97.4647
0.269153	97.4134
0.270707	97.3603
0.27227	97.3055
0.273842	97.249
0.275423	97.1907
0.277013	97.1306
0.278612	97.0688
0.280221	97.0052
0.281838	96.9399
0.283465	96.8729
0.285102	96.8041
0.286748	96.7335
0.288403	96.6612
0.290068	96.5872
0.291743	96.5114
0.293427	96.4338
0.295121	96.3545
0.296825	96.2735
0.298538	96.1907
0.300262	96.1062
0.301995	96.02
0.303739	95.932
0.305492	95.8423
0.307256	95.7509
0.30903	95.6577
0.310814	95.5628
0.312608	95.4662
0.314413	95.3679
0.316228	95.2679
0.318053	95.1662
0.31989	95.0628
0.321736	94.9576
0.323594	94.8508
0.325462	94.7423
0.327341	94.6321
0.32923	94.5202
0.331131	94.4067
0.333043	94.2915
0.334965	94.1746
0.336899	94.0561
0.338844	93.9359
0.3408	93.8141
0.342768	93.6906
0.344747	93.5655
0.346737	93.4388
0.348739	93.3105
0.350752	93.1805
0.352777	93.049
0.354813	92.9159
0.356862	92.7811
0.358922	92.6448
0.360994	92.507
0.363078	92.3676
0.365174	92.2266
0.367282	92.0841
0.369403	91.94
0.371535	91.7944
0.37368	91.6473
0.375837	91.4987
0.378007	91.3486
0.380189	91.1971
0.382384	91.044
0.384592	90.8895
0.386812	90.7335
0.389045	90.5761
0.391291	90.4172
0.39355	90.257
0.395822	90.0953
0.398107	89.9322
0.400405	89.7677
0.402717	89.6019
0.405042	89.4346
0.40738	89.2661
0.409732	89.0962
0.412098	88.9249
0.414477	88.7523
0.416869	88.5785
0.419276	88.4033
0.421697	88.2269
0.424131	88.0492
0.42658	87.8702
0.429042	87.69
0.431519	87.5086
0.43401	87.326
0.436516	87.1422
0.439036	86.9572
0.44157	86.771
0.44412	86.5836
0.446684	86.3951
0.449262	86.2055
0.451856	86.0148
0.454465	85.823
0.457088	85.63
0.459727	85.4361
0.462381	85.241
0.46505	85.0449
0.467735	84.8478
0.470435	84.6497
0.473151	84.4506
0.475883	84.2505
0.47863	84.0494
0.481393	83.8474
0.484172	83.6444
0.486968	83.4406
0.489779	83.2358
0.492606	83.0301
0.49545	82.8236
0.49831	82.6162
0.501187	82.408
0.504081	82.1989
0.506991	81.989
0.509918	81.7784
0.512861	81.5669
0.515822	81.3547
0.5188	81.1418
0.521795	80.9281
0.524807	80.7137
0.527837	80.4986
0.530884	80.2828
0.533949	80.0664
0.537032	79.8493
0.540132	79.6316
0.54325	79.4132
0.546387	79.1943
0.549541	78.9747
0.552713	78.7546
0.555904	78.534
0.559114	78.3128
0.562341	78.0911
0.565588	77.8689
0.568853	77.6462
0.572137	77.423
0.57544	77.1994
0.578762	76.9753
0.582103	76.7508
0.585464	76.5259
0.588844	76.3006
0.592243	76.0749
0.595662	75.8489
0.599101	75.6225
0.60256	75.3958
0.606038	75.1687
0.609537	74.9414
0.613056	74.7138
0.616595	74.4859
0.620155	74.2577
0.623735	74.0293
0.627336	73.8007
0.630957	73.5719
0.6346	73.3429
0.638263	73.1137
0.641948	72.8844
0.645654	72.6549
0.649382	72.4252
0.653131	72.1955
0.656901	71.9656
0.660693	71.7356
0.664508	71.5056
0.668344	71.2755
0.672202	71.0454
0.676083	70.8152
0.679986	70.585
0.683912	70.3547
0.68786	70.1245
0.691831	69.8943
0.695825	69.6642
0.699842	69.434
0.703882	69.204
0.707946	68.974
0.712033	68.7441
0.716143	68.5143
0.720278	68.2845
0.724436	68.055
0.728618	67.8255
0.732825	67.5962
0.737055	67.367
0.74131	67.138
0.74559	66.9092
0.749894	66.6806
0.754223	66.4522
0.758578	66.224
0.762957	65.996
0.767361	65.7682
0.771792	65.5407
0.776247	65.3135
0.780728	65.0865
0.785236	64.8598
0.789769	64.6334
0.794328	64.4073
0.798914	64.1815
0.803526	63.956
0.808165	63.7308
0.812831	63.506
0.817523	63.2815
0.822243	63.0574
0.82699	62.8336
0.831764	62.6102
0.836566	62.3872
0.841395	62.1646
0.846253	61.9423
0.851138	61.7205
0.856052	61.4991
0.860994	61.2781
0.865964	61.0575
0.870964	60.8374
0.875992	60.6177
0.881049	60.3985
0.886135	60.1797
0.891251	59.9614
0.896396	59.7436
0.901571	59.5262
0.906776	59.3093
0.912011	59.0929
0.917276	58.877
0.922571	58.6616
0.927897	58.4468
0.933254	58.2324
0.938642	58.0186
0.944061	57.8052
0.949511	57.5924
0.954993	57.3802
0.960506	57.1685
0.966051	56.9573
0.971628	56.7467
0.977237	56.5366
0.982879	56.3271
0.988553	56.1182
0.99426	55.9098
1	55.702
1.00577	55.4948
1.01158	55.2881
1.01742	55.0821
1.02329	54.8766
1.0292	54.6717
1.03514	54.4674
1.04112	54.2637
1.04713	54.0606
1.05317	53.8581
1.05925	53.6562
1.06537	53.4549
1.07152	53.2542
1.07771	53.0542
1.08393	52.8547
1.09018	52.6559
1.09648	52.4577
1.10281	52.2601
1.10917	52.0631
1.11558	51.8667
1.12202	51.671
1.1285	51.4759
1.13501	51.2815
1.14156	51.0876
1.14815	50.8944
1.15478	50.7018
1.16145	50.5099
1.16815	50.3186
1.1749	50.1279
1.18168	49.9379
1.1885	49.7485
1.19536	49.5597
1.20226	49.3716
1.20921	49.1841
1.21619	48.9972
1.22321	48.811
1.23027	48.6255
1.23737	48.4405
1.24451	48.2562
1.2517	48.0726
1.25893	47.8895
1.26619	47.7071
1.2735	47.5254
1.28086	47.3443
1.28825	47.1638
1.29569	46.984
1.30317	46.8048
1.31069	46.6262
1.31826	46.4483
1.32587	46.271
1.33352	46.0943
1.34122	45.9183
1.34896	45.7429
1.35675	45.5681
1.36458	45.394
1.37246	45.2204
1.38038	45.0475
1.38835	44.8753
1.39637	44.7036
1.40443	44.5326
1.41254	44.3622
1.42069	44.1924
1.42889	44.0233
1.43714	43.8547
1.44544	43.6868
1.45378	43.5195
1.46218	43.3528
1.47062	43.1867
1.47911	43.0212
1.48765	42.8564
1.49624	42.6921
1.50487	42.5284
1.51356	42.3654
1.5223	42.2029
1.53109	42.041
1.53993	41.8798
1.54882	41.7191
1.55776	41.559
1.56675	41.3995
1.5758	41.2406
1.58489	41.0823
1.59404	40.9246
1.60325	40.7675
1.6125	40.6109
1.62181	40.4549
1.63117	40.2995
1.64059	40.1447
1.65006	39.9904
1.65959	39.8367
1.66917	39.6836
1.6788	39.5311
1.6885	39.3791
1.69824	39.2277
1.70805	39.0768
1.71791	38.9265
1.72783	38.7767
1.7378	38.6275
1.74783	38.4789
1.75792	38.3308
1.76807	38.1833
1.77828	38.0362
1.78855	37.8898
1.79887	37.7439
1.80926	37.5985
1.8197	37.4536
1.83021	37.3093
1.84077	37.1655
1.8514	37.0223
1.86209	36.8795
1.87284	36.7373
1.88365	36.5957
1.89452	36.4545
1.90546	36.3138
1.91646	36.1737
1.92752	36.0341
1.93865	35.895
1.94984	35.7564
1.9611	35.6183
1.97242	35.4807
1.98381	35.3437
1.99526	35.2071
2.00678	35.071
2.01837	34.9354
2.03002	34.8003
2.04174	34.6657
2.05353	34.5316
2.06538	34.398
2.0773	34.2649
2.0893	34.1322
2.10136	34
2.11349	33.8684
2.12569	33.7371
2.13796	33.6064
2.1503	33.4761
2.16272	33.3463
2.1752	33.217
2.18776	33.0881
2.20039	32.9597
2.21309	32.8318
2.22587	32.7043
2.23872	32.5773
2.25165	32.4508
2.26464	32.3247
2.27772	32.199
2.29087	32.0738
2.30409	31.9491
2.31739	31.8247
2.33077	31.7009
2.34423	31.5775
2.35776	31.4545
2.37137	31.332
2.38506	31.2099
2.39883	31.0882
2.41268	30.967
2.42661	30.8462
2.44062	30.7258
2.45471	30.6058
2.46888	30.4863
2.48313	30.3672
2.49747	30.2486
2.51189	30.1303
2.52639	30.0125
2.54097	29.8951
2.55564	29.7781
2.5704	29.6615
2.58523	29.5453
2.60016	29.4295
2.61517	29.3142
2.63027	29.1992
2.64545	29.0847
2.66073	28.9706
2.67609	28.8568
2.69153	28.7435
2.70707	28.6306
2.7227	28.518
2.73842	28.4059
2.75423	28.2941
2.77013	28.1828
2.78612	28.0718
2.80221	27.9612
2.81838	27.8511
2.83465	27.7413
2.85102	27.6318
2.86748	27.5228
2.88403	27.4142
2.90068	27.3059
2.91743	27.198
2.93427	27.0905
2.95121	26.9834
2.96825	26.8766
2.98538	26.7702
3.00262	26.6642
3.01995	26.5585
3.03739	26.4533
3.05492	26.3484
3.07256	26.2438
3.0903	26.1396
3.10814	26.0358
3.12608	25.9324
3.14413	25.8293
3.16228	25.7266
3.18053	25.6242
3.1989	25.5222
3.21736	25.4205
3.23594	25.3192
3.25462	25.2182
3.27341	25.1176
3.2923	25.0174
3.31131	24.9175
3.33043	24.818
3.34965	24.7187
3.36899	24.6199
3.38844	24.5214
3.408	24.4232
3.42768	24.3254
3.44747	24.2279
3.46737	24.1308
3.48739	24.034
3.50752	23.9375
3.52777	23.8414
3.54813	23.7456
3.56862	23.6501
3.58922	23.555
3.60994	23.4602
3.63078	23.3657
3.65174	23.2716
3.67282	23.1778
3.69403	23.0843
3.71535	22.9911
3.7368	22.8983
3.75837	22.8058
3.78007	22.7136
3.80189	22.6218
3.82384	22.5303
3.84592	22.439
3.86812	22.3481
3.89045	22.2576
3.91291	22.1673
3.9355	22.0774
3.95822	21.9878
3.98107	21.8984
4.00405	21.8094
4.02717	21.7208
4.05042	21.6324
4.0738	21.5443
4.09732	21.4566
4.12098	21.3691
4.14477	21.282
4.16869	21.1952
4.19276	21.1087
4.21697	21.0224
4.24131	20.9365
4.2658	20.8509
4.29042	20.7656
4.31519	20.6806
4.3401	20.5959
4.36516	20.5115
4.39036	20.4274
4.4157	20.3436
4.4412	20.2601
4.46684	20.1768
4.49262	20.0939
4.51856	20.0113
4.54465	19.929
4.57088	19.8469
4.59727	19.7652
4.62381	19.6837
4.6505	19.6025
4.67735	19.5217
4.70435	19.4411
4.73151	19.3608
4.75883	19.2807
4.7863	19.201
4.81393	19.1216
4.84172	19.0424
4.86968	18.9635
4.89779	18.8849
4.92606	18.8066
4.9545	18.7286
4.9831	18.6508
5.01187	18.5733
5.04081	18.4962
5.06991	18.4192
5.09918	18.3426
5.12861	18.2662
5.15822	18.1901
5.188	18.1143
5.21795	18.0388
5.24807	17.9635
5.27837	17.8885
5.30884	17.8138
5.33949	17.7393
5.37032	17.6651
5.40132	17.5912
5.4325	17.5176
5.46387	17.4442
5.49541	17.3711
5.52713	17.2982
5.55904	17.2256
5.59114	17.1533
5.62341	17.0813
5.65588	17.0095
5.68853	16.9379
5.72137	16.8667
5.7544	16.7957
5.78762	16.7249
5.82103	16.6544
5.85464	16.5842
5.88844	16.5142
5.92243	16.4445
5.95662	16.375
5.99101	16.3058
6.0256	16.2369
6.06038	16.1682
6.09537	16.0997
6.13056	16.0316
6.16595	15.9636
6.20155	15.8959
6.23735	15.8285
6.27336	15.7613
6.30957	15.6944
6.346	15.6277
6.38263	15.5613
6.41948	15.4951
6.45654	15.4291
6.49382	15.3634
6.53131	15.298
6.56901	15.2327
6.60693	15.1678
6.64508	15.1031
6.68344	15.0386
6.72202	14.9743
6.76083	14.9103
6.79986	14.8466
6.83912	14.783
6.8786	14.7198
6.91831	14.6567
6.95825	14.5939
6.99842	14.5313
7.03882	14.469
7.07946	14.4069
7.12033	14.345
7.16143	14.2834
7.20278	14.222
7.24436	14.1608
7.28618	14.0999
7.32825	14.0392
7.37055	13.9787
7.4131	13.9185
7.4559	13.8585
7.49894	13.7987
7.54223	13.7391
7.58578	13.6798
7.62957	13.6207
7.67361	13.5618
7.71792	13.5031
7.76247	13.4447
7.80728	13.3865
7.85236	13.3285
7.89769	13.2708
7.94328	13.2132
7.98914	13.1559
8.03526	13.0988
8.08165	13.0419
8.12831	12.9853
8.17523	12.9288
8.22243	12.8726
8.2699	12.8166
8.31764	12.7608
8.36566	12.7053
8.41395	12.6499
8.46253	12.5948
8.51138	12.5398
8.56052	12.4851
8.60994	12.4306
8.65964	12.3763
8.70964	12.3222
8.75992	12.2684
8.81049	12.2147
8.86135	12.1613
8.91251	12.108
8.96396	12.055
9.01571	12.0022
9.06776	11.9496
9.12011	11.8971
9.17276	11.8449
9.22571	11.7929
9.27897	11.7411
9.33254	11.6895
9.38642	11.6382
9.44061	11.587
9.49511	11.536
9.54993	11.4852
9.60506	11.4346
9.66051	11.3842
9.71628	11.334
9.77237	11.2841
9.82879	11.2343
9.88553	11.1847
9.9426	11.1353
10	11.0861
10.0577	11.0371
10.1158	10.9883
10.1742	10.9397
10.2329	10.8913
10.292	10.843
10.3514	10.795
10.4112	10.7472
10.4713	10.6995
10.5317	10.652
10.5925	10.6048
10.6537	10.5577
10.7152	10.5108
10.7771	10.4641
10.8393	10.4176
10.9018	10.3713
10.9648	10.3251
11.0281	10.2792
11.0917	10.2334
11.1558	10.1878
11.2202	10.1424
11.285	10.0972
11.3501	10.0521
11.4156	10.0073
11.4815	9.96261
11.5478	9.91812
11.6145	9.8738
11.6815	9.82967
11.749	9.78572
11.8168	9.74194
11.885	9.69835
11.9536	9.65493
12.0226	9.61169
12.0921	9.56862
12.1619	9.52573
12.2321	9.48301
12.3027	9.44047
12.3737	9.39811
12.4451	9.35591
12.517	9.31389
12.5893	9.27204
12.6619	9.23036
12.735	9.18886
12.8086	9.14752
12.8825	9.10636
12.9569	9.06536
13.0317	9.02453
13.1069	8.98387
13.1826	8.94338
13.2587	8.90305
13.3352	8.86289
13.4122	8.8229
13.4896	8.78307
13.5675	8.7434
13.6458	8.70391
13.7246	8.66457
13.8038	8.6254
13.8835	8.58638
13.9637	8.54754
14.0443	8.50885
14.1254	8.47032
14.2069	8.43195
14.2889	8.39375
14.3714	8.3557
14.4544	8.31781
14.5378	8.28008
14.6218	8.2425
14.7062	8.20508
14.7911	8.16782
14.8765	8.13072
14.9624	8.09377
15.0487	8.05697
15.1356	8.02033
15.223	7.98384
15.3109	7.9475
15.3993	7.91132
15.4882	7.87529
15.5776	7.83941
15.6675	7.80368
15.758	7.7681
15.8489	7.73268
15.9404	7.6974
16.0325	7.66227
16.125	7.62728
16.2181	7.59245
16.3117	7.55776
16.4059	7.52322
16.5006	7.48882
16.5959	7.45457
16.6917	7.42047
16.788	7.38651
16.885	7.35269
16.9824	7.31902
17.0805	7.28549
17.1791	7.2521
17.2783	7.21886
17.378	7.18575
17.4783	7.15279
17.5792	7.11996
17.6807	7.08728
17.7828	7.05474
17.8855	7.02233
17.9887	6.98991
18.0926	6.95753
18.197	6.9253
18.3021	6.89321
18.4077	6.86127
18.514	6.82947
18.6209	6.79781
18.7284	6.7663
18.8365	6.73492
18.9452	6.70369
19.0546	6.6726
19.1646	6.64164
19.2752	6.61083
19.3865	6.58015
19.4984	6.54962
19.611	6.51921
19.7242	6.48895
19.8381	6.45882
19.9526	6.42883
20.0678	6.39897
20.1837	6.36925
20.3002	6.33966
20.4174	6.3102
20.5353	6.28088
20.6538	6.25169
20.773	6.22263
20.893	6.19371
21.0136	6.16491
21.1349	6.13624
21.2569	6.10771
21.3796	6.0793
21.503	6.05102
21.6272	6.02287
21.752	5.99484
21.8776	5.96695
22.0039	5.93918
22.1309	5.91153
22.2587	5.88402
22.3872	5.85662
22.5165	5.83213
22.6464	5.80493
22.7772	5.77786
22.9087	5.75091
23.0409	5.72408
23.1739	5.69737
23.3077	5.67079
23.4423	5.64432
23.5776	5.61798
23.7137	5.59176
23.8506	5.56565
23.9883	5.53967
24.1268	5.5138
24.2661	5.48805
24.4062	5.46242
24.5471	5.4369
24.6888	5.41151
24.8313	5.38622
24.9747	5.36106
25.1189	5.336
25.2639	5.31107
25.4097	5.28624
25.5564	5.26153
25.704	5.23693
25.8523	5.21245
26.0016	5.18808
26.1517	5.16381
26.3027	5.13966
26.4545	5.11562
26.6073	5.09169
26.7609	5.06787
26.9153	5.04416
27.0707	5.02056
27.227	4.99707
27.3842	4.97368
27.5423	4.9504
27.7013	4.92723
27.8612	4.90416
28.0221	4.8812
28.1838	4.85835
28.3465	4.8356
28.5102	4.81295
28.6748	4.79041
28.8403	4.76797
29.0068	4.74564
29.1743	4.72341
29.3427	4.70128
29.5121	4.67925
29.6825	4.65733
29.8538	4.6355
30.0262	4.61378
30.1995	4.59215
30.3739	4.57063
30.5492	4.54921
30.7256	4.52788
30.903	4.50665
31.0814	4.48552
31.2608	4.46449
31.4413	4.44355
31.6228	4.42437
31.8053	4.4036
31.989	4.38293
32.1736	4.36235
32.3594	4.34187
32.5462	4.32148
32.7341	4.30119
32.923	4.28099
33.1131	4.26088
33.3043	4.24087
33.4965	4.22095
33.6899	4.20112
33.8844	4.18139
34.08	4.16175
34.2768	4.14219
34.4747	4.12273
34.6737	4.10336
34.8739	4.08408
35.0752	4.06489
35.2777	4.04579
35.4813	4.02677
35.6862	4.00785
35.8922	3.98901
36.0994	3.97026
36.3078	3.9516
36.5174	3.93302
36.7282	3.91453
36.9403	3.89613
37.1535	3.87781
37.368	3.85958
37.5837	3.84144
37.8007	3.82337
38.0189	3.8054
38.2384	3.7875
38.4592	3.76969
38.6812	3.75196
38.9045	3.73432
39.1291	3.71676
39.355	3.69928
39.5822	3.68188
39.8107	3.66456
40.0405	3.64732
40.2717	3.63017
40.5042	3.61309
40.738	3.5961
40.9732	3.57918
41.2098	3.56235
41.4477	3.54559
41.6869	3.52891
41.9276	3.51231
42.1697	3.49578
42.4131	3.47934
42.658	3.46297
42.9042	3.44668
43.1519	3.43046
43.401	3.41432
43.6516	3.39826
43.9036	3.38227
44.157	3.36635
44.412	3.35052
44.6684	3.33475
44.9262	3.31906
45.1856	3.30344
45.4465	3.2879
45.7088	3.27244
45.9727	3.25705
46.2381	3.24173
46.505	3.22648
46.7735	3.21131
47.0435	3.1962
47.3151	3.18117
47.5883	3.1662
47.863	3.15131
48.1393	3.13649
48.4172	3.12174
48.6968	3.10705
48.9779	3.09244
49.2606	3.07789
49.545	3.06341
49.831	3.04901
50.1187	3.03466
50.4081	3.02039
50.6991	3.00618
50.9918	2.99204
51.2861	2.97797
51.5822	2.96396
51.88	2.95002
52.1795	2.93615
52.4807	2.92234
52.7837	2.90859
53.0884	2.89491
53.3949	2.8813
53.7032	2.86774
54.0132	2.85426
54.325	2.84083
54.6387	2.82747
54.9541	2.81418
55.2713	2.80094
55.5904	2.78777
55.9114	2.77466
56.2341	2.76161
56.5588	2.74863
56.8853	2.7357
57.2137	2.72284
57.544	2.71003
57.8762	2.69729
58.2103	2.68461
58.5464	2.67199
58.8844	2.65943
59.2243	2.64692
59.5662	2.63448
59.9101	2.6221
60.256	2.60977
60.6038	2.5975
60.9537	2.58529
61.3056	2.57314
61.6595	2.56105
62.0155	2.54901
62.3735	2.53703
62.7336	2.52511
63.0957	2.51324
63.46	2.50144
63.8263	2.48968
64.1948	2.47799
64.5654	2.46634
64.9382	2.45476
65.3131	2.44323
65.6901	2.43175
66.0693	2.42033
66.4508	2.40896
66.8344	2.39765
67.2202	2.38639
67.6083	2.37518
67.9986	2.36403
68.3912	2.35293
68.786	2.34188
69.1831	2.33089
69.5825	2.31995
69.9842	2.30906
70.3882	2.29822
70.7946	2.28743
71.2033	2.2767
71.6143	2.26602
72.0278	2.25538
72.4436	2.2448
72.8618	2.23427
73.2825	2.22379
73.7055	2.21336
74.131	2.20298
74.559	2.19265
74.9894	2.18237
75.4223	2.17213
75.8578	2.16195
76.2957	2.15182
76.7361	2.14173
77.1792	2.13169
77.6247	2.1217
78.0728	2.11176
78.5236	2.10186
78.9769	2.09202
79.4328	2.08222
79.8914	2.07247
80.3526	2.06276
80.8165	2.0531
81.2831	2.04349
81.7523	2.03392
82.2243	2.0244
82.699	2.01492
83.1764	2.00549
83.6566	1.99611
84.1395	1.98677
84.6253	1.97747
85.1138	1.96822
85.6052	1.95902
86.0994	1.94986
86.5964	1.94074
87.0964	1.93167
87.5992	1.92264
88.1049	1.91365
88.6135	1.90471
89.1251	1.89581
89.6396	1.88695
90.1571	1.87813
90.6776	1.86936
91.2011	1.86063
91.7276	1.85195
92.2571	1.8433
92.7897	1.8347
93.3254	1.82613
93.8642	1.81761
94.4061	1.80913
94.9511	1.80069
95.4993	1.79229
96.0506	1.78394
96.6051	1.77562
97.1628	1.76734
97.7237	1.7591
98.2879	1.75091
98.8553	1.74275
99.426	1.73463
100	1.72655
100.577	1.71851
101.158	1.71051
101.742	1.70255
102.329	1.69462
102.92	1.68674
103.514	1.67889
104.112	1.67108
104.713	1.66331
105.317	1.65558
105.925	1.64788
106.537	1.64022
107.152	1.6326
107.771	1.62501
108.393	1.61747
109.018	1.60995
109.648	1.60248
110.281	1.59504
110.917	1.58764
111.558	1.58027
112.202	1.57294
112.85	1.56565
113.501	1.55839
114.156	1.55116
114.815	1.54397
115.478	1.53682
116.145	1.5297
116.815	1.52261
117.49	1.51556
118.168	1.50855
118.85	1.50157
119.536	1.49462
120.226	1.48771
120.921	1.48083
121.619	1.47398
122.321	1.46717
123.027	1.46039
123.737	1.45364
124.451	1.44692
125.17	1.44024
125.893	1.43359
126.619	1.42698
127.35	1.42039
128.086	1.41384
128.825	1.40732
129.569	1.40084
130.317	1.39438
131.069	1.38795
131.826	1.38156
132.587	1.3752
133.352	1.36887
134.122	1.36257
134.896	1.3563
135.675	1.35006
136.458	1.34385
137.246	1.33768
138.038	1.33153
138.835	1.32541
139.637	1.31933
140.443	1.31327
141.254	1.30724
142.069	1.30125
142.889	1.29528
143.714	1.28934
144.544	1.28343
145.378	1.27755
146.218	1.2717
147.062	1.26587
147.911	1.26008
148.765	1.25431
149.624	1.24857
150.487	1.24287
151.356	1.23718
152.23	1.23153
153.109	1.22591
153.993	1.22031
154.882	1.21474
155.776	1.20919
156.675	1.20368
157.58	1.19819
158.489	1.19273
159.404	1.18729
160.325	1.18189
161.25	1.17651
162.181	1.17115
163.117	1.16582
164.059	1.16052
165.006	1.15525
165.959	1.15
166.917	1.14477
167.88	1.13958
168.85	1.13441
169.824	1.12926
170.805	1.12414
171.791	1.11904
172.783	1.11397
173.78	1.10893
174.783	1.10391
175.792	1.09891
176.807	1.09394
177.828	1.08899
178.855	1.08407
179.887	1.07918
180.926	1.0743
181.97	1.06945
183.021	1.06463
184.077	1.05983
185.14	1.05505
186.209	1.0503
187.284	1.04557
188.365	1.04086
189.452	1.03618
190.546	1.03152
191.646	1.02689
192.752	1.02227
193.865	1.01768
194.984	1.01312
196.11	1.00857
197.242	1.00405
198.381	0.999549
199.526	0.995072
200.678	0.990618
201.837	0.986185
203.002	0.981775
204.174	0.977386
205.353	0.97302
206.538	0.968675
207.73	0.964352
208.93	0.96005
210.136	0.95577
211.349	0.951512
212.569	0.947274
213.796	0.943058
215.03	0.938863
216.272	0.934689
217.52	0.930536
218.776	0.926403
220.039	0.922291
221.309	0.9182
222.587	0.91413
223.872	0.910079
225.165	0.906049
226.464	0.902039
227.772	0.89805
229.087	0.89408
230.409	0.89013
231.739	0.8862
233.077	0.88229
234.423	0.878399
235.776	0.874528
237.137	0.870676
238.506	0.866844
239.883	0.863031
241.268	0.859237
242.661	0.855462
244.062	0.851707
245.471	0.84797
246.888	0.844252
248.313	0.840552
249.747	0.836872
251.189	0.833209
252.639	0.829566
254.097	0.82594
255.564	0.822333
257.04	0.818744
258.523	0.815174
260.016	0.811621
261.517	0.808086
263.027	0.804569
264.545	0.80107
266.073	0.797588
267.609	0.794124
269.153	0.790678
270.707	0.787249
272.27	0.783838
273.842	0.780443
275.423	0.777066
277.013	0.773706
278.612	0.770363
280.221	0.767037
281.838	0.763728
283.465	0.760435
285.102	0.75716
286.748	0.753901
288.403	0.750658
290.068	0.747432
291.743	0.744222
293.427	0.741029
295.121	0.737852
296.825	0.734691
298.538	0.731546
300.262	0.728417
301.995	0.725304
303.739	0.722207
305.492	0.719126
307.256	0.71606
309.03	0.71301
310.814	0.709976
312.608	0.706957
314.413	0.703953
316.228	0.700965
318.053	0.697992
319.89	0.695034
321.736	0.692092
323.594	0.689164
325.462	0.686251
327.341	0.683354
329.23	0.680471
331.131	0.677603
333.043	0.674749
334.965	0.67191
336.899	0.669086
338.844	0.666276
340.8	0.663481
342.768	0.6607
344.747	0.657933
346.737	0.655181
348.739	0.652442
350.752	0.649718
352.777	0.647007
354.813	0.644311
356.862	0.641629
358.922	0.63896
360.994	0.636305
363.078	0.633664
365.174	0.631036
367.282	0.628422
369.403	0.625821
371.535	0.623234
373.68	0.62066
375.837	0.618099
378.007	0.615552
380.189	0.613018
382.384	0.610497
384.592	0.607989
386.812	0.605494
389.045	0.603011
391.291	0.600542
393.55	0.598086
395.822	0.595642
398.107	0.593211
400.405	0.590792
402.717	0.588386
405.042	0.585993
407.38	0.583612
409.732	0.581243
412.098	0.578887
414.477	0.576543
416.869	0.574211
419.276	0.571891
421.697	0.569583
424.131	0.567288
426.58	0.565004
429.042	0.562732
431.519	0.560473
434.01	0.558224
436.516	0.555988
439.036	0.553763
441.57	0.55155
444.12	0.549349
446.684	0.547159
449.262	0.54498
451.856	0.542813
454.465	0.540658
457.088	0.538513
459.727	0.53638
462.381	0.534258
465.05	0.532147
467.735	0.530048
470.435	0.527959
473.151	0.525881
475.883	0.523814
478.63	0.521758
481.393	0.519713
484.172	0.517679
486.968	0.515655
489.779	0.513643
492.606	0.51164
495.45	0.509649
498.31	0.507667
501.187	0.505697
504.081	0.503736
506.991	0.501786
509.918	0.499847
512.861	0.497917
515.822	0.495998
518.8	0.494089
521.795	0.492191
524.807	0.490302
527.837	0.488423
530.884	0.486555
533.949	0.484696
537.032	0.482847
540.132	0.481008
543.25	0.479179
546.387	0.477359
549.541	0.475549
552.713	0.473749
555.904	0.471959
559.114	0.470178
562.341	0.468406
565.588	0.466644
568.853	0.464892
572.137	0.463149
575.44	0.461415
578.762	0.459691
582.103	0.457975
585.464	0.456269
588.844	0.454572
592.243	0.452885
595.662	0.451206
599.101	0.449536
602.56	0.447876
606.038	0.446224
609.537	0.444581
613.056	0.442947
616.595	0.441322
620.155	0.439706
623.735	0.438099
627.336	0.4365
630.957	0.434909
634.6	0.433328
638.263	0.431755
641.948	0.43019
645.654	0.428634
649.382	0.427087
653.131	0.425548
656.901	0.424017
660.693	0.422495
664.508	0.420981
668.344	0.419475
672.202	0.417977
676.083	0.416488
679.986	0.415006
683.912	0.413533
687.86	0.412068
691.831	0.410611
695.825	0.409162
699.842	0.407721
703.882	0.406287
707.946	0.404862
712.033	0.403445
716.143	0.402035
720.278	0.400633
724.436	0.399239
728.618	0.397852
732.825	0.396473
737.055	0.395102
741.31	0.393738
745.59	0.392382
749.894	0.391033
754.223	0.389692
758.578	0.388359
762.957	0.387032
767.361	0.385713
771.792	0.384402
776.247	0.383097
780.728	0.3818
785.236	0.380511
789.769	0.379228
794.328	0.377952
798.914	0.376684
803.526	0.375423
808.165	0.374169
812.831	0.372922
817.523	0.371682
822.243	0.370448
826.99	0.369222
831.764	0.368003
836.566	0.366791
841.395	0.365585
846.253	0.364386
851.138	0.363194
856.052	0.362009
860.994	0.36083
865.964	0.359658
870.964	0.358493
875.992	0.357334
881.049	0.356182
886.135	0.355037
891.251	0.353898
896.396	0.352765
901.571	0.351639
906.776	0.35052
912.011	0.349407
917.276	0.3483
922.571	0.347199
927.897	0.346105
933.254	0.345017
938.642	0.343936
944.061	0.34286
949.511	0.341791
954.993	0.340728
960.506	0.339671
966.051	0.33862
971.628	0.337576
977.237	0.336537
982.879	0.335504
988.553	0.334478
994.26	0.333457
1000	0.332442
1005.77	0.331434
1011.58	0.330431
1017.42	0.329434
1023.29	0.328442
1029.2	0.327457
1035.14	0.326477
1041.12	0.325503
1047.13	0.324535
1053.17	0.323573
1059.25	0.322616
1065.37	0.321665
1071.52	0.320719
1077.71	0.319779
1083.93	0.318845
1090.18	0.317916
1096.48	0.316992
1102.81	0.316075
1109.17	0.315162
1115.58	0.314255
1122.02	0.313354
1128.5	0.312458
1135.01	0.311567
1141.56	0.310681
1148.15	0.309801
1154.78	0.308926
1161.45	0.308057
1168.15	0.307192
1174.9	0.306333
1181.68	0.305479
1188.5	0.30463
1195.36	0.303787
1202.26	0.302948
1209.21	0.302115
1216.19	0.301287
1223.21	0.300463
1230.27	0.299645
1237.37	0.298832
1244.51	0.298024
1251.7	0.29722
1258.93	0.296422
1266.19	0.295628
1273.5	0.29484
1280.86	0.294056
1288.25	0.293277
1295.69	0.292503
1303.17	0.291734
1310.69	0.290969
1318.26	0.29021
1325.87	0.289455
1333.52	0.288704
1341.22	0.287959
1348.96	0.287218
1356.75	0.286482
1364.58	0.28575
1372.46	0.285023
1380.38	0.284301
1388.35	0.283583
1396.37	0.282869
1404.43	0.28216
1412.54	0.281456
1420.69	0.280756
1428.89	0.280061
1437.14	0.27937
1445.44	0.278684
1453.78	0.278001
1462.18	0.277324
1470.62	0.27665
1479.11	0.275981
1487.65	0.275317
1496.24	0.274656
1504.87	0.274
1513.56	0.273348
1522.3	0.272701
1531.09	0.272057
1539.93	0.271418
1548.82	0.270783
1557.76	0.270152
1566.75	0.269525
1575.8	0.268903
1584.89	0.268284
1594.04	0.26767
1603.25	0.26706
1612.5	0.266453
1621.81	0.265851
1631.17	0.265253
1640.59	0.264659
1650.06	0.264068
1659.59	0.263482
1669.17	0.2629
1678.8	0.262321
1688.5	0.261747
1698.24	0.261176
1708.05	0.26061
1717.91	0.260047
1727.83	0.259488
1737.8	0.258932
1747.83	0.258381
1757.92	0.257833
1768.07	0.25729
1778.28	0.256749
1788.55	0.256213
1798.87	0.25568
1809.26	0.255152
1819.7	0.254626
1830.21	0.254105
1840.77	0.253587
1851.4	0.253072
1862.09	0.252562
1872.84	0.252055
1883.65	0.251551
1894.52	0.251051
1905.46	0.250555
1916.46	0.250062
1927.52	0.249573
1938.65	0.249087
1949.84	0.248604
1961.1	0.248126
1972.42	0.24765
1983.81	0.247178
1995.26	0.24671
2006.78	0.246245
2018.37	0.245783
2030.02	0.245325
2041.74	0.24487
2053.53	0.244418
2065.38	0.24397
2077.3	0.243525
2089.3	0.243083
2101.36	0.242645
2113.49	0.24221
2125.69	0.241778
2137.96	0.241349
2150.3	0.240924
2162.72	0.240502
2175.2	0.240083
2187.76	0.239667
2200.39	0.239254
2213.09	0.238845
2225.87	0.238439
2238.72	0.238036
2251.65	0.237636
2264.64	0.237239
2277.72	0.236845
2290.87	0.236454
2304.09	0.236066
2317.39	0.235682
2330.77	0.2353
2344.23	0.234922
2357.76	0.234546
2371.37	0.234173
2385.06	0.233804
2398.83	0.233437
2412.68	0.233074
2426.61	0.232713
2440.62	0.232355
2454.71	0.232
2468.88	0.231648
2483.13	0.231299
2497.47	0.230953
2511.89	0.230609
2526.39	0.230269
2540.97	0.229931
2555.64	0.229596
2570.4	0.229264
2585.23	0.228935
2600.16	0.228609
2615.17	0.228285
2630.27	0.227964
2645.45	0.227646
2660.73	0.22733
2676.09	0.227018
2691.53	0.226708
2707.07	0.2264
2722.7	0.226096
2738.42	0.225794
2754.23	0.225494
2770.13	0.225198
2786.12	0.224904
2802.21	0.224601
2818.38	0.224301
2834.65	0.224004
2851.02	0.223709
2867.48	0.223416
2884.03	0.223126
2900.68	0.222839
2917.43	0.222554
2934.27	0.222271
2951.21	0.22199
2968.25	0.221712
2985.38	0.221437
3002.62	0.221164
3019.95	0.220893
3037.39	0.220625
3054.92	0.220358
3072.56	0.220095
3090.3	0.219833
3108.14	0.219574
3126.08	0.219317
3144.13	0.219063
3162.28	0.218811
3180.53	0.218561
3198.9	0.218313
3217.36	0.218067
3235.94	0.217824
3254.62	0.217583
3273.41	0.217344
3292.3	0.217108
3311.31	0.216873
3330.43	0.216641
3349.65	0.216411
3368.99	0.216183
3388.44	0.215957
3408	0.215734
3427.68	0.215512
3447.47	0.215293
3467.37	0.215076
3487.39	0.214861
3507.52	0.214648
3527.77	0.214437
3548.13	0.214228
3568.62	0.214021
3589.22	0.213816
3609.94	0.213614
3630.78	0.213413
3651.74	0.213214
3672.82	0.213018
3694.03	0.212823
3715.35	0.21263
3736.8	0.21244
3758.37	0.212251
3780.07	0.212064
3801.89	0.211879
3823.84	0.211697
3845.92	0.211516
3868.12	0.211337
3890.45	0.21116
3912.91	0.210984
3935.5	0.210811
3958.22	0.21064
3981.07	0.21047
4004.05	0.210302
4027.17	0.210137
4050.42	0.209973
4073.8	0.209811
4097.32	0.20965
4120.98	0.209492
4144.77	0.209335
4168.69	0.20918
4192.76	0.209027
4216.97	0.208876
4241.31	0.208726
4265.8	0.208579
4290.42	0.208433
4315.19	0.208288
4340.1	0.208146
4365.16	0.208005
4390.36	0.207866
4415.7	0.207729
4441.2	0.207593
4466.84	0.207459
4492.62	0.207327
4518.56	0.207196
4544.65	0.207067
4570.88	0.20694
4597.27	0.206814
4623.81	0.20669
4650.5	0.206568
4677.35	0.206447
4704.35	0.206328
4731.51	0.20621
4758.83	0.206095
4786.3	0.20598
4813.93	0.205867
4841.72	0.205756
4869.68	0.205647
4897.79	0.205539
4926.06	0.205432
4954.5	0.205327
4983.1	0.205224
5011.87	0.205122
5040.81	0.205021
5069.91	0.204922
5099.18	0.204825
5128.61	0.204729
5158.22	0.204635
5188	0.204542
5217.95	0.20445
5248.07	0.20436
5278.37	0.204272
5308.84	0.204184
5339.49	0.204099
5370.32	0.204014
5401.32	0.203932
5432.5	0.20385
5463.87	0.20377
5495.41	0.203691
5527.13	0.203614
5559.04	0.203538
5591.14	0.203464
5623.41	0.203391
5655.88	0.203319
5688.53	0.203248
5721.37	0.203179
5754.4	0.203111
5787.62	0.203045
5821.03	0.20298
5854.64	0.202916
5888.44	0.202853
5922.43	0.202792
5956.62	0.202732
5991.01	0.202673
6025.6	0.202616
6060.38	0.20256
6095.37	0.202505
6130.56	0.202451
6165.95	0.202399
6201.55	0.202348
6237.35	0.202298
6273.36	0.202249
6309.57	0.202202
6346	0.202155
6382.63	0.20211
6419.48	0.202066
6456.54	0.202024
6493.82	0.201982
6531.31	0.201942
6569.01	0.201903
6606.93	0.201865
6645.08	0.201828
6683.44	0.201792
6722.02	0.201757
6760.83	0.201724
6799.86	0.201692
6839.12	0.20166
6878.6	0.20163
6918.31	0.201601
6958.25	0.201573
6998.42	0.201547
7038.82	0.201521
7079.46	0.201496
7120.33	0.201473
7161.43	0.20145
7202.78	0.201428
7244.36	0.201408
7286.18	0.201389
7328.25	0.20137
7370.55	0.201353
7413.1	0.201337
7455.9	0.201321
7498.94	0.201307
7542.23	0.201294
7585.78	0.201282
7629.57	0.20127
7673.61	0.20126
7717.92	0.201251
7762.47	0.201242
7807.28	0.201235
7852.36	0.201228
7897.69	0.201223
7943.28	0.201218
7989.14	0.201215
8035.26	0.201212
8081.65	0.20121
8128.31	0.20121
8175.23	0.20121
8222.43	0.201211
8269.9	0.201213
8317.64	0.201216
8365.66	0.201219
8413.95	0.201224
8462.53	0.201229
8511.38	0.201236
8560.52	0.201243
8609.94	0.201251
8659.64	0.20126
8709.64	0.20127
8759.92	0.201281
8810.49	0.201292
8861.35	0.201304
8912.51	0.201318
8963.96	0.201332
9015.71	0.201346
9067.76	0.201362
9120.11	0.201378
9172.76	0.201396
9225.71	0.201414
9278.97	0.201432
9332.54	0.201452
9386.42	0.201472
9440.61	0.201493
9495.11	0.201515
9549.93	0.201538
9605.06	0.201561
9660.51	0.201586
9716.28	0.20161
9772.37	0.201636
9828.79	0.201663
9885.53	0.20169
9942.6	0.201717
10000	0.201746
10057.7	0.201775
10115.8	0.201805
10174.2	0.201836
10232.9	0.201867
10292	0.201899
10351.4	0.201932
10411.2	0.201966
10471.3	0.202
10531.7	0.202035
10592.5	0.20207
10653.7	0.202106
10715.2	0.202143
10777.1	0.20218
10839.3	0.202219
10901.8	0.202257
10964.8	0.202297
11028.1	0.202337
11091.7	0.202377
11155.8	0.202419
11220.2	0.20246
11285	0.202503
11350.1	0.202546
11415.6	0.20259
11481.5	0.202634
11547.8	0.202679
11614.5	0.202725
11681.5	0.202771
11749	0.202817
11816.8	0.202865
11885	0.202912
11953.6	0.202961
12022.6	0.20301
12092.1	0.203059
12161.9	0.203109
12232.1	0.20316
12302.7	0.203211
12373.7	0.203263
12445.1	0.203315
12517	0.203368
12589.3	0.203421
12661.9	0.203475
12735	0.203529
12808.6	0.203584
12882.5	0.203639
12956.9	0.203695
13031.7	0.203752
13106.9	0.203809
13182.6	0.203866
13258.7	0.203924
13335.2	0.203982
13412.2	0.204041
13489.6	0.2041
13567.5	0.20416
13645.8	0.20422
13724.6	0.204281
13803.8	0.204342
13883.5	0.204404
13963.7	0.204466
14044.3	0.204529
14125.4	0.204592
14206.9	0.204655
14288.9	0.204719
14371.4	0.204783
14454.4	0.204848
14537.8	0.204913
14621.8	0.204979
14706.2	0.205045
14791.1	0.205111
14876.5	0.205178
14962.4	0.205245
15048.7	0.205313
15135.6	0.205381
15223	0.20545
15310.9	0.205518
15399.3	0.205588
15488.2	0.205657
15577.6	0.205727
15667.5	0.205798
15758	0.205869
15848.9	0.20594
15940.4	0.206011
16032.5	0.206083
16125	0.206155
16218.1	0.206228
16311.7	0.206301
16405.9	0.206374
16500.6	0.206448
16595.9	0.206522
16691.7	0.206596
16788	0.206671
16885	0.206746
16982.4	0.206821
17080.5	0.206897
17179.1	0.206973
17278.3	0.20705
17378	0.207126
17478.3	0.207203
17579.2	0.207281
17680.7	0.207358
17782.8	0.207436
17885.5	0.207514
17988.7	0.207593
18092.6	0.207672
18197	0.207751
18302.1	0.20783
18407.7	0.20791
18514	0.20799
18620.9	0.20807
18728.4	0.208151
18836.5	0.208232
18945.2	0.208313
19054.6	0.208394
19164.6	0.208476
19275.2	0.208558
19386.5	0.20864
19498.4	0.208722
19611	0.208805
19724.2	0.208888
19838.1	0.208971
19952.6	0.209055
20067.8	0.209139
20183.7	0.209223
20300.2	0.209307
20417.4	0.209391
20535.3	0.209476
20653.8	0.209561
20773	0.209646
20893	0.209732
21013.6	0.209817
21134.9	0.209903
21256.9	0.209989
21379.6	0.210075
21503	0.210162
21627.2	0.210249
21752	0.210336
21877.6	0.210423
22003.9	0.21051
22130.9	0.210598
22258.7	0.210685
22387.2	0.210773
22516.5	0.210862
22646.4	0.21095
22777.2	0.211038
22908.7	0.211127
23040.9	0.211216
23173.9	0.211305
23307.7	0.211395
23442.3	0.211484
23577.6	0.211574
23713.7	0.211664
23850.6	0.211754
23988.3	0.211844
24126.8	0.211934
24266.1	0.212025
24406.2	0.212115
24547.1	0.212206
24688.8	0.212297
24831.3	0.212389
24974.7	0.21248
25118.9	0.212572
25263.9	0.212663
25409.7	0.212755
25556.4	0.212847
25704	0.212939
25852.3	0.213031
26001.6	0.213124
26151.7	0.213216
26302.7	0.213309
26454.5	0.213402
26607.3	0.213495
26760.9	0.213588
26915.3	0.213681
27070.7	0.213775
27227	0.213868
27384.2	0.213962
27542.3	0.214056
27701.3	0.21415
27861.2	0.214244
28022.1	0.214338
28183.8	0.214432
28346.5	0.214527
28510.2	0.214621
28674.8	0.214716
28840.3	0.21481
29006.8	0.214905
29174.3	0.215
29342.7	0.215095
29512.1	0.21519
29682.5	0.215286
29853.8	0.215381
30026.2	0.215477
30199.5	0.215572
30373.9	0.215668
30549.2	0.215764
30725.6	0.21586
30903	0.215956
31081.4	0.216052
31260.8	0.216148
31441.3	0.216244
31622.8	0.21634
31805.3	0.216437
31989	0.216533
32173.6	0.21663
32359.4	0.216727
32546.2	0.216823
32734.1	0.21692
32923	0.217017
33113.1	0.217114
33304.3	0.217211
33496.5	0.217308
33689.9	0.217406
33884.4	0.217503
34080	0.2176
34276.8	0.217698
34474.7	0.217795
34673.7	0.217893
34873.9	0.21799
35075.2	0.218088
35277.7	0.218186
35481.3	0.218284
35686.2	0.218382
35892.2	0.21848
36099.4	0.218578
36307.8	0.218676
36517.4	0.218774
36728.2	0.218872
36940.3	0.21897
37153.5	0.219068
37368	0.219167
37583.7	0.219265
37800.7	0.219364
38018.9	0.219462
38238.4	0.219561
38459.2	0.219659
38681.2	0.219758
38904.5	0.219856
39129.1	0.219955
39355	0.220054
39582.2	0.220153
39810.7	0.220251
40040.5	0.22035
40271.7	0.220449
40504.2	0.220548
40738	0.220647
40973.2	0.220746
41209.8	0.220845
41447.7	0.220944
41686.9	0.221043
41927.6	0.221143
42169.7	0.221242
42413.1	0.221341
42658	0.22144
42904.2	0.221539
43151.9	0.221639
43401	0.221738
43651.6	0.221837
43903.6	0.221937
44157	0.222036
44412	0.222135
44668.4	0.222235
44926.2	0.222334
45185.6	0.222434
45446.5	0.222533
45708.8	0.222633
45972.7	0.222732
46238.1	0.222832
46505	0.222931
46773.5	0.223031
47043.5	0.223131
47315.1	0.22323
47588.3	0.22333
47863	0.223429
48139.3	0.223529
48417.2	0.223629
48696.8	0.223728
48977.9	0.223828
49260.6	0.223928
49545	0.224027
49831	0.224127
50118.7	0.224227
50408.1	0.224326
50699.1	0.224426
50991.8	0.224526
51286.1	0.224625
51582.2	0.224725
51880	0.224825
52179.5	0.224925
52480.7	0.225024
52783.7	0.225124
53088.4	0.225224
53394.9	0.225324
53703.2	0.225423
54013.2	0.225523
54325	0.225623
54638.7	0.225722
54954.1	0.225822
55271.3	0.225922
55590.4	0.226022
55911.4	0.226121
56234.1	0.226221
56558.8	0.226321
56885.3	0.22642
57213.7	0.22652
57544	0.22662
57876.2	0.226719
58210.3	0.226819
58546.4	0.226919
58884.4	0.227018
59224.3	0.227118
59566.2	0.227217
59910.1	0.227317
60256	0.227417
60603.8	0.227516
60953.7	0.227616
61305.6	0.227715
61659.5	0.227815
62015.5	0.227914
62373.5	0.228014
62733.6	0.228113
63095.7	0.228213
63460	0.228312
63826.3	0.228412
64194.8	0.228511
64565.4	0.228611
64938.2	0.22871
65313.1	0.22881
65690.1	0.228909
66069.3	0.229008
66450.8	0.229108
66834.4	0.229207
67220.2	0.229306
67608.3	0.229406
67998.6	0.229505
68391.2	0.229604
68786	0.229703
69183.1	0.229803
69582.5	0.229902
69984.2	0.230001
70388.2	0.2301
70794.6	0.230199
71203.3	0.230298
71614.3	0.230397
72027.8	0.230496
72443.6	0.230595
72861.8	0.230694
73282.5	0.230793
73705.5	0.230892
74131	0.230991
74559	0.23109
74989.4	0.231189
75422.3	0.231288
75857.8	0.231387
76295.7	0.231486
76736.1	0.231585
77179.2	0.231683
77624.7	0.231782
78072.8	0.231881
78523.6	0.231979
78976.9	0.232078
79432.8	0.232177
79891.4	0.232275
80352.6	0.232374
80816.5	0.232472
81283.1	0.232571
81752.3	0.23267
82224.3	0.232768
82699	0.232866
83176.4	0.232965
83656.6	0.233063
84139.5	0.233162
84625.3	0.23326
85113.8	0.233358
85605.2	0.233457
86099.4	0.233555
86596.4	0.233653
87096.4	0.233751
87599.2	0.233849
88104.9	0.233947
88613.5	0.234046
89125.1	0.234144
89639.6	0.234242
90157.1	0.23434
90677.6	0.234438
91201.1	0.234536
91727.6	0.234634
92257.1	0.234731
92789.7	0.234829
93325.4	0.234927
93864.2	0.235025
94406.1	0.235123
94951.1	0.23522
95499.3	0.235318
96050.6	0.235416
96605.1	0.235513
97162.8	0.235611
97723.7	0.235709
98287.9	0.235806
98855.3	0.235904
99426	0.236001
100000	0.236099
100577	0.236196
101158	0.236293
101742	0.236391
102329	0.236488
102920	0.236585
103514	0.236683
104112	0.23678
104713	0.236877
105317	0.236974
105925	0.237071
106537	0.237168
107152	0.237265
107771	0.237362
108393	0.237459
109018	0.237556
109648	0.237653
110281	0.23775
110917	0.237847
111558	0.237944
112202	0.238041
112850	0.238137
113501	0.238234
114156	0.238331
114815	0.238427
115478	0.238524
116145	0.238621
116815	0.238717
117490	0.238814
118168	0.23891
118850	0.239007
119536	0.239103
120226	0.239199
120921	0.239296
121619	0.239392
122321	0.239488
123027	0.239585
123737	0.239681
124451	0.239777
125170	0.239873
125893	0.239969
126619	0.240065
127350	0.240161
128086	0.240258
128825	0.240354
129569	0.240449
130317	0.240545
131069	0.240641
131826	0.240737
132587	0.240833
133352	0.240929
134122	0.241025
134896	0.24112
135675	0.241216
136458	0.241312
137246	0.241407
138038	0.241503
138835	0.241598
139637	0.241694
140443	0.241789
141254	0.241885
142069	0.24198
142889	0.242076
143714	0.242171
144544	0.242266
145378	0.242362
146218	0.242457
147062	0.242552
147911	0.242647
148765	0.242743
149624	0.242838
150487	0.242933
151356	0.243028
152230	0.243123
153109	0.243218
153993	0.243313
154882	0.243408
155776	0.243503
156675	0.243598
157580	0.243693
158489	0.243787
159404	0.243882
160325	0.243977
161250	0.244072
162181	0.244166
163117	0.244261
164059	0.244356
165006	0.24445
165959	0.244545
166917	0.244639
167880	0.244734
168850	0.244828
169824	0.244923
170805	0.245017
171791	0.245112
172783	0.245206
173780	0.2453
174783	0.245395
175792	0.245489
176807	0.245583
177828	0.245678
178855	0.245772
179887	0.245866
180926	0.24596
181970	0.246054
183021	0.246148
184077	0.246242
185140	0.246336
186209	0.24643
187284	0.246524
188365	0.246618
189452	0.246712
190546	0.246806
191646	0.2469
192752	0.246994
193865	0.247087
194984	0.247181
196110	0.247275
197242	0.247369
198381	0.247462
199526	0.247556
200678	0.24765
201837	0.247743
203002	0.247837
204174	0.24793
205353	0.248024
206538	0.248117
207730	0.248211
208930	0.248304
210136	0.248398
211349	0.248491
212569	0.248585
213796	0.248678
215030	0.248771
216272	0.248865
217520	0.248958
218776	0.249051
220039	0.249144
221309	0.249237
222587	0.249331
223872	0.249424
225165	0.249517
226464	0.24961
227772	0.249703
229087	0.249796
230409	0.249889
231739	0.249982
233077	0.250075
234423	0.250168
235776	0.250261
237137	0.250354
238506	0.250447
239883	0.25054
241268	0.250633
242661	0.250725
244062	0.250818
245471	0.250911
246888	0.251004
248313	0.251096
249747	0.251189
251189	0.251282
252639	0.251374
254097	0.251467
255564	0.25156
257040	0.251652
258523	0.251745
260016	0.251837
261517	0.25193
263027	0.252023
264545	0.252115
266073	0.252208
267609	0.2523
269153	0.252392
270707	0.252485
272270	0.252577
273842	0.25267
275423	0.252762
277013	0.252854
278612	0.252947
280221	0.253039
281838	0.253131
283465	0.253224
285102	0.253316
286748	0.253408
288403	0.2535
290068	0.253592
291743	0.253685
293427	0.253777
295121	0.253869
296825	0.253961
298538	0.254053
300262	0.254145
301995	0.254237
303739	0.254329
305492	0.254421
307256	0.254514
309030	0.254606
310814	0.254698
312608	0.25479
314413	0.254881
316228	0.254973
318053	0.255065
319890	0.255157
321736	0.255249
323594	0.255341
325462	0.255433
327341	0.255525
329230	0.255617
331131	0.255708
333043	0.2558
334965	0.255892
336899	0.255984
338844	0.256075
340800	0.256167
342768	0.256259
344747	0.25635
346737	0.256442
348739	0.256534
350752	0.256625
352777	0.256717
354813	0.256808
356862	0.2569
358922	0.256992
360994	0.257083
363078	0.257175
365174	0.257266
367282	0.257357
369403	0.257449
371535	0.25754
373680	0.257632
375837	0.257723
378007	0.257814
380189	0.257906
382384	0.257997
384592	0.258088
386812	0.258179
389045	0.258271
391291	0.258362
393550	0.258453
395822	0.258544
398107	0.258635
400405	0.258726
402717	0.258817
405042	0.258908
407380	0.259
409732	0.259091
412098	0.259182
414477	0.259272
416869	0.259363
419276	0.259454
421697	0.259545
424131	0.259636
426580	0.259727
429042	0.259818
431519	0.259908
434010	0.259999
436516	0.26009
439036	0.260181
441570	0.260271
444120	0.260362
446684	0.260453
449262	0.260543
451856	0.260634
454465	0.260724
457088	0.260815
459727	0.260905
462381	0.260996
465050	0.261086
467735	0.261177
470435	0.261267
473151	0.261357
475883	0.261448
478630	0.261538
481393	0.261628
484172	0.261718
486968	0.261809
489779	0.261899
492606	0.261989
495450	0.262079
498310	0.262169
501187	0.262259
504081	0.262349
506991	0.262439
509918	0.262529
512861	0.262619
515822	0.262709
518800	0.262799
521795	0.262889
524807	0.262979
527837	0.263069
530884	0.263158
533949	0.263248
537032	0.263338
540132	0.263427
543250	0.263517
546387	0.263607
549541	0.263696
552713	0.263786
555904	0.263875
559114	0.263965
562341	0.264054
565588	0.264144
568853	0.264233
572137	0.264322
575440	0.264412
578762	0.264501
582103	0.26459
585464	0.264679
588844	0.264769
592243	0.264858
595662	0.264947
599101	0.265036
602560	0.265125
606038	0.265214
609537	0.265303
613056	0.265392
616595	0.265481
620155	0.26557
623735	0.265658
627336	0.265747
630957	0.265836
634600	0.265925
638263	0.266013
641948	0.266102
645654	0.266191
649382	0.266279
653131	0.266368
656901	0.266456
660693	0.266545
664508	0.266633
668344	0.266722
672202	0.26681
676083	0.266899
679986	0.266987
683912	0.267075
687860	0.267163
691831	0.267251
695825	0.26734
699842	0.267428
703882	0.267516
707946	0.267604
712033	0.267692
716143	0.26778
720278	0.267868
724436	0.267956
728618	0.268043
732825	0.268131
737055	0.268219
741310	0.268307
745590	0.268394
749894	0.268482
754223	0.26857
758578	0.268657
762957	0.268745
767361	0.268832
771792	0.26892
776247	0.269007
780728	0.269095
785236	0.269182
789769	0.269269
794328	0.269356
798914	0.269444
803526	0.269531
808165	0.269618
812831	0.269705
817523	0.269792
822243	0.269879
826990	0.269966
831764	0.270053
836566	0.27014
841395	0.270227
846253	0.270314
851138	0.2704
856052	0.270487
860994	0.270574
865964	0.27066
870964	0.270747
875992	0.270833
881049	0.27092
886135	0.271006
891251	0.271093
896396	0.271179
901571	0.271266
906776	0.271352
912011	0.271438
917276	0.271524
922571	0.27161
927897	0.271697
933254	0.271783
938642	0.271869
944061	0.271955
949511	0.272041
954993	0.272126
960506	0.272212
966051	0.272298
971628	0.272384
977237	0.27247
982879	0.272555
988553	0.272641
994260	0.272726
1e+06	0.272812
1.00577e+06	0.272897
1.01158e+06	0.272983
1.01742e+06	0.273068
1.02329e+06	0.273154
1.0292e+06	0.273239
1.03514e+06	0.273324
1.04112e+06	0.273409
1.04713e+06	0.273494
1.05317e+06	0.27358
1.05925e+06	0.273665
1.06537e+06	0.27375
1.07152e+06	0.273835
1.07771e+06	0.27392
1.08393e+06	0.274004
1.09018e+06	0.274089
1.09648e+06	0.274174
1.10281e+06	0.274259
1.10917e+06	0.274343
1.11558e+06	0.274428
1.12202e+06	0.274513
1.1285e+06	0.274597
1.13501e+06	0.274682
1.14156e+06	0.274766
1.14815e+06	0.274851
1.15478e+06	0.274935
1.16145e+06	0.275019
1.16815e+06	0.275103
1.1749e+06	0.275188
1.18168e+06	0.275272
1.1885e+06	0.275356
1.19536e+06	0.27544
1.20226e+06	0.275524
1.20921e+06	0.275608
1.21619e+06	0.275692
1.22321e+06	0.275776
1.23027e+06	0.275859
1.23737e+06	0.275943
1.24451e+06	0.276027
1.2517e+06	0.276111
1.25893e+06	0.276194
1.26619e+06	0.276278
1.2735e+06	0.276361
1.28086e+06	0.276445
1.28825e+06	0.276528
1.29569e+06	0.276611
1.30317e+06	0.276695
1.31069e+06	0.276778
1.31826e+06	0.276861
1.32587e+06	0.276944
1.33352e+06	0.277027
1.34122e+06	0.27711
1.34896e+06	0.277193
1.35675e+06	0.277276
1.36458e+06	0.277359
1.37246e+06	0.277442
1.38038e+06	0.277525
1.38835e+06	0.277608
1.39637e+06	0.27769
1.40443e+06	0.277773
1.41254e+06	0.277855
1.42069e+06	0.277938
1.42889e+06	0.27802
1.43714e+06	0.278103
1.44544e+06	0.278185
1.45378e+06	0.278268
1.46218e+06	0.27835
1.47062e+06	0.278432
1.47911e+06	0.278514
1.48765e+06	0.278596
1.49624e+06	0.278678
1.50487e+06	0.27876
1.51356e+06	0.278842
1.5223e+06	0.278924
1.53109e+06	0.279006
1.53993e+06	0.279088
1.54882e+06	0.279169
1.55776e+06	0.279251
1.56675e+06	0.279333
1.5758e+06	0.279414
1.58489e+06	0.279496
1.59404e+06	0.279577
1.60325e+06	0.279659
1.6125e+06	0.27974
1.62181e+06	0.279821
1.63117e+06	0.279902
1.64059e+06	0.279984
1.65006e+06	0.280065
1.65959e+06	0.280146
1.66917e+06	0.280227
1.6788e+06	0.280308
1.6885e+06	0.280389
1.69824e+06	0.28047
1.70805e+06	0.28055
1.71791e+06	0.280631
1.72783e+06	0.280712
1.7378e+06	0.280792
1.74783e+06	0.280873
1.75792e+06	0.280953
1.76807e+06	0.281034
1.77828e+06	0.281114
1.78855e+06	0.281195
1.79887e+06	0.281275
1.80926e+06	0.281355
1.8197e+06	0.281435
1.83021e+06	0.281515
1.84077e+06	0.281595
1.8514e+06	0.281675
1.86209e+06	0.281755
1.87284e+06	0.281835
1.88365e+06	0.281915
1.89452e+06	0.281995
1.90546e+06	0.282075
1.91646e+06	0.282154
1.92752e+06	0.282234
1.93865e+06	0.282313
1.94984e+06	0.282393
1.9611e+06	0.282472
1.97242e+06	0.282552
1.98381e+06	0.282631
1.99526e+06	0.28271
2.00678e+06	0.282789
2.01837e+06	0.282868
2.03002e+06	0.282948
2.04174e+06	0.283027
2.05353e+06	0.283105
2.06538e+06	0.283184
2.0773e+06	0.283263
2.0893e+06	0.283342
2.10136e+06	0.283421
2.11349e+06	0.283499
2.12569e+06	0.283578
2.13796e+06	0.283657
2.1503e+06	0.283735
2.16272e+06	0.283813
2.1752e+06	0.283892
2.18776e+06	0.28397
2.20039e+06	0.284048
2.21309e+06	0.284127
2.22587e+06	0.284205
2.23872e+06	0.284283
2.25165e+06	0.284361
2.26464e+06	0.284439
2.27772e+06	0.284517
2.29087e+06	0.284594
2.30409e+06	0.284672
2.31739e+06	0.28475
2.33077e+06	0.284828
2.34423e+06	0.284905
2.35776e+06	0.284983
2.37137e+06	0.28506
2.38506e+06	0.285138
2.39883e+06	0.285215
2.41268e+06	0.285292
2.42661e+06	0.285369
2.44062e+06	0.285447
2.45471e+06	0.285524
2.46888e+06	0.285601
2.48313e+06	0.285678
2.49747e+06	0.285755
2.51189e+06	0.285832
2.52639e+06	0.285908
2.54097e+06	0.285985
2.55564e+06	0.286062
2.5704e+06	0.286138
2.58523e+06	0.286215
2.60016e+06	0.286291
2.61517e+06	0.286368
2.63027e+06	0.286444
2.64545e+06	0.286521
2.66073e+06	0.286597
2.67609e+06	0.286673
2.69153e+06	0.286749
2.70707e+06	0.286825
2.7227e+06	0.286901
2.73842e+06	0.286977
2.75423e+06	0.287053
2.77013e+06	0.287129
2.78612e+06	0.287205
2.80221e+06	0.28728
2.81838e+06	0.287356
2.83465e+06	0.287432
2.85102e+06	0.287507
2.86748e+06	0.287583
2.88403e+06	0.287658
2.90068e+06	0.287733
2.91743e+06	0.287809
2.93427e+06	0.287884
2.95121e+06	0.287959
2.96825e+06	0.288034
2.98538e+06	0.288109
3.00262e+06	0.288184
3.01995e+06	0.288259
3.03739e+06	0.288334
3.05492e+06	0.288408
3.07256e+06	0.288483
3.0903e+06	0.288558
3.10814e+06	0.288632
3.12608e+06	0.288707
3.14413e+06	0.288781
3.16228e+06	0.288856
3.18053e+06	0.28893
3.1989e+06	0.289004
3.21736e+06	0.289079
3.23594e+06	0.289153
3.25462e+06	0.289227
3.27341e+06	0.289301
3.2923e+06	0.289375
3.31131e+06	0.289449
3.33043e+06	0.289522
3.34965e+06	0.289596
3.36899e+06	0.28967
3.38844e+06	0.289744
3.408e+06	0.289817
3.42768e+06	0.289891
3.44747e+06	0.289964
3.46737e+06	0.290038
3.48739e+06	0.290111
3.50752e+06	0.290184
3.52777e+06	0.290257
3.54813e+06	0.29033
3.56862e+06	0.290403
3.58922e+06	0.290477
3.60994e+06	0.290549
3.63078e+06	0.290622
3.65174e+06	0.290695
3.67282e+06	0.290768
3.69403e+06	0.290841
3.71535e+06	0.290913
3.7368e+06	0.290986
3.75837e+06	0.291058
3.78007e+06	0.291131
3.80189e+06	0.291203
3.82384e+06	0.291275
3.84592e+06	0.291348
3.86812e+06	0.29142
3.89045e+06	0.291492
3.91291e+06	0.291564
3.9355e+06	0.291636
3.95822e+06	0.291708
3.98107e+06	0.29178
4.00405e+06	0.291852
4.02717e+06	0.291923
4.05042e+06	0.291995
4.0738e+06	0.292067
4.09732e+06	0.292138
4.12098e+06	0.29221
4.14477e+06	0.292281
4.16869e+06	0.292353
4.19276e+06	0.292424
4.21697e+06	0.292495
4.24131e+06	0.292566
4.2658e+06	0.292637
4.29042e+06	0.292708
4.31519e+06	0.292779
4.3401e+06	0.29285
4.36516e+06	0.292921
4.39036e+06	0.292992
4.4157e+06	0.293063
4.4412e+06	0.293133
4.46684e+06	0.293204
4.49262e+06	0.293274
4.51856e+06	0.293345
4.54465e+06	0.293415
4.57088e+06	0.293486
4.59727e+06	0.293556
4.62381e+06	0.293626
4.6505e+06	0.293696
4.67735e+06	0.293767
4.70435e+06	0.293837
4.73151e+06	0.293907
4.75883e+06	0.293976
4.7863e+06	0.294046
4.81393e+06	0.294116
4.84172e+06	0.294186
4.86968e+06	0.294255
4.89779e+06	0.294325
4.92606e+06	0.294395
4.9545e+06	0.294464
4.9831e+06	0.294533
5.01187e+06	0.294603
5.04081e+06	0.294672
5.06991e+06	0.294741
5.09918e+06	0.29481
5.12861e+06	0.29488
5.15822e+06	0.294949
5.188e+06	0.295018
5.21795e+06	0.295086
5.24807e+06	0.295155
5.27837e+06	0.295224
5.30884e+06	0.295293
5.33949e+06	0.295361
5.37032e+06	0.29543
5.40132e+06	0.295499
5.4325e+06	0.295567
5.46387e+06	0.295635
5.49541e+06	0.295704
5.52713e+06	0.295772
5.55904e+06	0.29584
5.59114e+06	0.295909
5.62341e+06	0.295977
5.65588e+06	0.296045
5.68853e+06	0.296113
5.72137e+06	0.296181
5.7544e+06	0.296248
5.78762e+06	0.296316
5.82103e+06	0.296384
5.85464e+06	0.296452
5.88844e+06	0.296519
5.92243e+06	0.296587
5.95662e+06	0.296654
5.99101e+06	0.296642
6.0256e+06	0.29663
6.06038e+06	0.296619
6.09537e+06	0.296607
6.13056e+06	0.296596
6.16595e+06	0.296585
6.20155e+06	0.296574
6.23735e+06	0.296563
6.27336e+06	0.296552
6.30957e+06	0.296541
6.346e+06	0.296531
6.38263e+06	0.29652
6.41948e+06	0.29651
6.45654e+06	0.2965
6.49382e+06	0.296489
6.53131e+06	0.296479
6.56901e+06	0.29647
6.60693e+06	0.29646
6.64508e+06	0.29645
6.68344e+06	0.296441
6.72202e+06	0.296431
6.76083e+06	0.296422
6.79986e+06	0.296413
6.83912e+06	0.296404
6.8786e+06	0.296395
6.91831e+06	0.296386
6.95825e+06	0.296377
6.99842e+06	0.296368
7.03882e+06	0.29636
7.07946e+06	0.296351
7.12033e+06	0.296343
7.16143e+06	0.296334
7.20278e+06	0.296326
7.24436e+06	0.296318
7.28618e+06	0.29631
7.32825e+06	0.296302
7.37055e+06	0.296294
7.4131e+06	0.296286
7.4559e+06	0.296279
7.49894e+06	0.296271
7.54223e+06	0.296264
7.58578e+06	0.296256
7.62957e+06	0.296249
7.67361e+06	0.296242
7.71792e+06	0.296234
7.76247e+06	0.296227
7.80728e+06	0.29622
7.85236e+06	0.296213
7.89769e+06	0.296207
7.94328e+06	0.2962
7.98914e+06	0.296193
8.03526e+06	0.296187
8.08165e+06	0.29618
8.12831e+06	0.296174
8.17523e+06	0.296167
8.22243e+06	0.296161
8.2699e+06	0.296155
8.31764e+06	0.296149
8.36566e+06	0.296142
8.41395e+06	0.296136
8.46253e+06	0.29613
8.51138e+06	0.296125
8.56052e+06	0.296119
8.60994e+06	0.296113
8.65964e+06	0.296107
8.70964e+06	0.296102
8.75992e+06	0.296096
8.81049e+06	0.296091
8.86135e+06	0.296085
8.91251e+06	0.29608
8.96396e+06	0.296075
9.01571e+06	0.296069
9.06776e+06	0.296064
9.12011e+06	0.296059
9.17276e+06	0.296054
9.22571e+06	0.296049
9.27897e+06	0.296044
9.33254e+06	0.296039
9.38642e+06	0.296034
9.44061e+06	0.296029
9.49511e+06	0.296025
9.54993e+06	0.29602
9.60506e+06	0.296015
9.66051e+06	0.296011
9.71628e+06	0.296006
9.77237e+06	0.296002
9.82879e+06	0.295997
9.88553e+06	0.295993
9.9426e+06	0.295989
1e+07	0.295984
